time, ax, ay, az, gx, gy, gz, mx, my, mz
   487670636,   -0.01611,    -0.01465,    +1.02734,   -0.01277,    -0.00851,    -0.00958,  -30.77930,  +3463.21436,   -33.00117
   487681524,   -0.01416,    -0.01709,    +1.02686,   -0.01383,    -0.00532,    -0.00851,  -36.39199,   -60.29121,   -32.65195
   487692378,   -0.01074,    -0.02295,    +1.02441,   -0.01596,    -0.01064,    -0.00745,  -36.39199,   -60.29121,   -32.65195
   487703218,   -0.01123,    -0.01270,    +1.02539,   -0.01383,    -0.00851,    -0.00958,  -36.39199,   -60.29121,   -32.65195
   487714130,   -0.00977,    -0.01123,    +1.03613,   -0.01916,    -0.01064,    -0.01171,  -36.39199,   -60.29121,   -32.65195
   487724965,   -0.01465,    -0.00928,    +1.02588,   -0.01383,    -0.01171,    -0.01171,  -36.39199,   -60.29121,   -32.65195
   487735805,   -0.01123,    -0.00879,    +1.03564,   -0.01703,    -0.01596,    -0.01171,  -36.39199,   -60.29121,   -32.65195
   487746652,   -0.01465,    -0.01660,    +1.03223,   -0.01064,    -0.00851,    -0.01383,  -36.39199,   -60.29121,   -32.65195
   487757495,   -0.01562,    -0.01416,    +1.02832,   -0.01596,    -0.01171,    -0.00958,  -36.39199,   -60.29121,   -32.65195
   487768378,   -0.01025,    -0.01562,    +1.03027,   -0.01703,    -0.01171,    -0.00958,  -36.39199,   -60.29121,   -32.65195
   487779228,   -0.01611,    -0.01904,    +1.03223,   -0.01277,    -0.01171,    -0.01490,  -36.39199,   -60.29121,   -32.65195
   487790062,   -0.01904,    -0.00928,    +1.02295,   -0.01383,    -0.00639,    -0.01171,  -36.02988,   -61.01543,   -32.30273
   487800900,   -0.02246,    -0.02246,    +1.03271,   -0.01809,    -0.01064,    -0.01277,  -36.02988,   -61.01543,   -32.30273
   487811751,   -0.01416,    -0.01074,    +1.02539,   -0.01171,    -0.01171,    -0.01703,  -36.02988,   -61.01543,   -32.30273
   487822584,   -0.01611,    -0.01611,    +1.03320,   -0.01596,    -0.00426,    -0.01064,  -36.02988,   -61.01543,   -32.30273
   487833427,   -0.01221,    -0.01172,    +1.00928,   -0.01277,    -0.01490,    -0.00958,  -36.02988,   -61.01543,   -32.30273
   487844290,   -0.02197,    -0.01123,    +1.02637,   -0.00958,    -0.01596,    -0.00745,  -36.02988,   -61.01543,   -32.30273
   487855122,   -0.01562,    -0.01758,    +1.00635,   -0.01064,    -0.01171,    -0.00958,  -36.02988,   -61.01543,   -32.30273
   487865974,   -0.01025,    -0.01514,    +1.03027,   -0.01703,    -0.00745,    -0.01171,  -36.02988,   -61.01543,   -32.30273
   487876806,   -0.00928,    -0.02344,    +1.01855,   -0.01703,    -0.01277,    -0.00745,  -36.02988,   -61.01543,   -32.30273
   487887703,   -0.00830,    -0.01514,    +1.03223,   -0.01703,    -0.00958,    -0.01277,  -36.02988,   -61.01543,   -32.30273
   487898568,   -0.02344,    -0.01465,    +1.02832,   -0.01703,    -0.01064,    -0.01064,  -36.02988,   -61.01543,   -32.30273
   487909403,   -0.02246,    -0.00342,    +1.03564,   -0.01809,    -0.01383,    -0.01171,  -36.02988,   -61.01543,   -32.30273
   487920257,   -0.01221,    -0.02148,    +1.02539,   -0.01383,    -0.01383,    -0.01171,  -36.02988,   -61.01543,   -32.30273
   487931090,   -0.01465,    -0.01025,    +1.02930,   -0.01171,    -0.00958,    -0.01490,  -36.02988,   -61.01543,   -32.30273
   487941923,   -0.02100,    -0.01318,    +1.02539,   -0.01809,    -0.00851,    -0.01171,  -36.02988,   -61.01543,   -32.30273
   487952761,   -0.00977,    -0.01611,    +1.02490,   -0.01064,    -0.00851,    -0.01490,  -36.02988,   -61.01543,   -32.30273
   487963610,   -0.00586,    -0.00781,    +1.03955,   -0.01064,    -0.00851,    -0.01277,  -36.02988,   -61.01543,   -32.30273
   487974494,   -0.01855,    -0.00781,    +1.03760,   -0.01490,    -0.01064,    -0.01277,  -36.02988,   -61.01543,   -32.30273
   487985338,   -0.02148,    -0.00928,    +1.02002,   -0.01383,    -0.01277,    -0.01171,  -36.02988,   -61.01543,   -32.30273
   487996178,   -0.01465,    -0.01465,    +1.02002,   -0.01277,    -0.00639,    -0.01064,  -36.02988,   -61.01543,   -32.30273
   488007072,   -0.01855,    -0.01611,    +1.02490,   -0.01809,    -0.00958,    -0.01383,  -36.02988,   -61.01543,   -32.30273
   488018038,   -0.01855,    -0.01709,    +1.03662,   -0.01171,    -0.01383,    -0.01490,  -36.02988,   -61.01543,   -32.30273
   488028884,   -0.01074,    -0.01611,    +1.03613,   -0.00958,    -0.01277,    -0.01171,  -36.02988,   -61.01543,   -32.30273
   488039755,   -0.01562,    -0.01270,    +1.02051,   -0.01490,    -0.00532,    -0.01064,  -37.11621,   -62.10176,   -32.65195
   488050593,   -0.02051,    -0.01318,    +1.03174,   -0.01277,    -0.01064,    -0.01277,  -37.11621,   -62.10176,   -32.65195
   488061483,   -0.02588,    -0.02002,    +1.02588,   -0.00958,    -0.00958,    -0.00851,  -37.11621,   -62.10176,   -32.65195
   488072321,   -0.01172,    -0.01416,    +1.01416,   -0.01596,    -0.01064,    -0.00958,  -37.11621,   -62.10176,   -32.65195
   488083177,   -0.01221,    -0.00928,    +1.02100,   -0.01171,    -0.00745,    -0.01064,  -37.11621,   -62.10176,   -32.65195
   488094066,   -0.01807,    -0.02490,    +1.01660,   -0.01490,    -0.00745,    -0.01277,  -37.11621,   -62.10176,   -32.65195
   488104975,   -0.01904,    -0.00879,    +1.02246,   -0.01383,    -0.00958,    -0.01171,  -37.11621,   -62.10176,   -32.65195
   488115903,   -0.02148,    -0.01416,    +1.03174,   -0.01277,    -0.00851,    -0.00958,  -37.11621,   -62.10176,   -32.65195
   488126889,   -0.02246,    -0.01611,    +1.03125,   -0.01171,    -0.01277,    -0.01596,  -37.11621,   -62.10176,   -32.65195
   488137796,   -0.01416,    -0.02295,    +1.02441,   -0.01064,    -0.00213,    -0.01171,  -37.11621,   -62.10176,   -32.65195
   488148727,   -0.01611,    -0.01270,    +1.01904,   -0.01596,    -0.00958,    -0.01171,  -37.11621,   -62.10176,   -32.65195
   488159657,   -0.01562,    -0.00342,    +1.03711,   -0.01383,    -0.01064,    -0.01171,  -37.11621,   -62.10176,   -32.65195
   488170563,   -0.01465,    -0.01318,    +1.02686,   -0.01383,    -0.01596,    -0.01064,  -37.11621,   -62.10176,   -32.65195
   488181512,   -0.00879,    -0.01416,    +1.01611,   -0.01490,    -0.01383,    -0.00958,  -37.11621,   -62.10176,   -32.65195
   488192447,   -0.01709,    -0.00928,    +1.02441,   -0.01596,    -0.01277,    -0.00958,  -37.11621,   -62.10176,   -32.65195
   488203371,   -0.02246,    -0.01465,    +1.03613,   -0.01171,    -0.01490,    -0.00851,  -37.11621,   -62.10176,   -32.65195
   488214353,   -0.01904,    -0.01172,    +1.01514,   -0.01703,    -0.01171,    -0.01383,  -37.11621,   -62.10176,   -32.65195
   488225261,   -0.00928,    -0.01562,    +1.02100,   -0.01383,    -0.01064,    -0.01383,  -37.11621,   -62.10176,   -32.65195
   488236196,   -0.01562,    -0.01123,    +1.02295,   -0.01277,    -0.01277,    -0.00745,  -37.11621,   -62.10176,   -32.65195
   488247117,   -0.01660,    -0.01514,    +1.03271,   -0.01703,    -0.00745,    -0.00958,  -37.11621,   -62.10176,   -32.65195
   488258047,   -0.01758,    -0.00684,    +1.02783,   -0.01171,    -0.00958,    -0.01383,  -37.11621,   -62.10176,   -32.65195
   488269035,   -0.01660,    -0.02441,    +1.01855,   -0.01277,    -0.00639,    -0.01277,  -37.11621,   -62.10176,   -32.65195
   488279941,   -0.01660,    -0.00586,    +1.03564,   -0.01171,    -0.00745,    -0.00745,  -37.11621,   -62.10176,   -32.65195
   488290855,   -0.02100,    -0.01221,    +1.03223,   -0.01277,    -0.01277,    -0.00851,  -36.75410,   -59.56699,   -31.95352
   488301816,   -0.02002,    -0.01025,    +1.02490,   -0.01703,    -0.00958,    -0.01064,  -36.75410,   -59.56699,   -31.95352
   488312725,   -0.00732,    -0.02100,    +1.03320,   -0.01277,    -0.01064,    -0.01277,  -36.75410,   -59.56699,   -31.95352
   488323697,   -0.01074,    -0.01123,    +1.01611,   -0.01383,    -0.00851,    -0.01277,  -36.75410,   -59.56699,   -31.95352
   488334691,   -0.01318,    -0.00879,    +1.02051,   -0.01064,    -0.01277,    -0.01171,  -36.75410,   -59.56699,   -31.95352
   488345628,   -0.01318,    -0.00586,    +1.03271,   -0.01490,    -0.01064,    -0.01064,  -36.75410,   -59.56699,   -31.95352
   488356601,   -0.00391,    -0.01221,    +1.02051,   -0.01171,    -0.00958,    -0.00958,  -36.75410,   -59.56699,   -31.95352
   488367592,   -0.01416,    -0.01270,    +1.02588,   -0.01703,    -0.00958,    -0.00639,  -36.75410,   -59.56699,   -31.95352
   488378587,   -0.01855,    -0.02148,    +1.01709,   -0.01383,    -0.01383,    -0.01490,  -36.75410,   -59.56699,   -31.95352
   488389561,   -0.02344,    -0.01074,    +1.01514,   -0.01916,    -0.01383,    -0.01064,  -36.75410,   -59.56699,   -31.95352
   488400470,   -0.01172,    -0.01855,    +1.01318,   -0.01490,    -0.01383,    -0.00745,  -36.75410,   -59.56699,   -31.95352
   488411377,   -0.01416,    -0.01709,    +1.03320,   -0.01596,    -0.00851,    -0.00958,  -36.75410,   -59.56699,   -31.95352
   488422346,   -0.01025,    -0.00781,    +1.03760,   -0.01383,    -0.00745,    -0.01064,  -36.75410,   -59.56699,   -31.95352
   488433253,   -0.01172,    -0.01660,    +1.02148,   -0.01383,    -0.01064,    -0.01171,  -36.75410,   -59.56699,   -31.95352
   488444232,   -0.02100,    -0.02002,    +1.03369,   -0.02022,    -0.00851,    -0.00958,  -36.75410,   -59.56699,   -31.95352
   488455136,   -0.02295,    -0.01465,    +1.03564,   -0.01277,    -0.01064,    -0.01596,  -36.75410,   -59.56699,   -31.95352
   488466099,   -0.01318,    -0.00586,    +1.03125,   -0.01596,    -0.00851,    -0.01277,  -36.75410,   -59.56699,   -31.95352
   488477068,   -0.01709,    -0.02051,    +1.02588,   -0.01490,    -0.00851,    -0.01064,  -36.75410,   -59.56699,   -31.95352
   488487975,   -0.01074,    -0.01611,    +1.01074,   -0.00958,    -0.01171,    -0.01064,  -36.75410,   -59.56699,   -31.95352
   488498954,   -0.01904,    -0.00537,    +1.01514,   -0.01383,    -0.01064,    -0.00851,  -36.75410,   -59.56699,   -31.95352
   488509920,   -0.01318,    -0.00488,    +1.02930,   -0.01596,    -0.00958,    -0.01064,  -36.75410,   -59.56699,   -31.95352
   488520852,   -0.01855,    -0.01514,    +1.01514,   -0.01490,    -0.00851,    -0.01277,  -36.75410,   -59.56699,   -31.95352
   488531851,   -0.01221,    -0.01709,    +1.02051,   -0.01277,    -0.00532,    -0.01064,  -36.75410,   -62.46387,   -33.69961
   488542760,   -0.02246,    -0.02344,    +1.02197,   -0.01171,    -0.01383,    -0.01171,  -36.75410,   -62.46387,   -33.69961
   488553680,   -0.01172,    -0.01562,    +1.04297,   -0.01383,    -0.00745,    -0.01383,  -36.75410,   -62.46387,   -33.69961
   488564669,   -0.01562,    -0.00928,    +1.02002,   -0.01703,    -0.01064,    -0.01171,  -36.75410,   -62.46387,   -33.69961
   488575592,   -0.02002,    -0.00977,    +1.02246,   -0.01277,    -0.00958,    -0.01171,  -36.75410,   -62.46387,   -33.69961
   488586562,   -0.00977,    -0.01855,    +1.03271,   -0.01277,    -0.00639,    -0.01277,  -36.75410,   -62.46387,   -33.69961
   488597510,   -0.02002,    -0.00488,    +1.03320,   -0.00958,    -0.01277,    -0.01064,  -36.75410,   -62.46387,   -33.69961
   488608417,   -0.02148,    -0.01123,    +1.03711,   -0.01277,    -0.00745,    -0.01064,  -36.75410,   -62.46387,   -33.69961
   488619382,   -0.01367,    -0.01123,    +1.04150,   -0.01383,    -0.00851,    -0.01064,  -36.75410,   -62.46387,   -33.69961
   488630342,   -0.01660,    -0.01855,    +1.04150,   -0.01064,    -0.00851,    -0.01064,  -36.75410,   -62.46387,   -33.69961
   488641258,   -0.01416,    -0.01025,    +1.02832,   -0.01277,    -0.01277,    -0.01171,  -36.75410,   -62.46387,   -33.69961
   488652228,   -0.01709,    -0.01611,    +1.00635,   -0.01064,    -0.01171,    -0.01277,  -36.75410,   -62.46387,   -33.69961
   488663150,   -0.01660,    -0.02344,    +1.03467,   -0.01383,    -0.01064,    -0.00958,  -36.75410,   -62.46387,   -33.69961
   488674124,   -0.01807,    -0.00635,    +1.01660,   -0.01490,    -0.01064,    -0.01064,  -36.75410,   -62.46387,   -33.69961
   488685041,   -0.01416,    -0.00635,    +1.02637,   -0.01490,    -0.00958,    -0.00639,  -36.75410,   -62.46387,   -33.69961
   488695948,   -0.00586,    -0.01172,    +1.03174,   -0.01064,    -0.01383,    -0.01171,  -36.75410,   -62.46387,   -33.69961
   488706920,   -0.01709,    -0.01562,    +1.03174,   -0.01490,    -0.01277,    -0.00851,  -36.75410,   -62.46387,   -33.69961
   488717846,   -0.01221,    -0.01709,    +1.02441,   -0.01703,    -0.00639,    -0.01064,  -36.75410,   -62.46387,   -33.69961
   488728813,   -0.01416,    -0.01221,    +1.03516,   -0.01064,    -0.00532,    -0.01064,  -36.75410,   -62.46387,   -33.69961
   488739766,   -0.01416,    -0.01758,    +1.04102,   -0.01171,    -0.01277,    -0.01277,  -36.75410,   -62.46387,   -33.69961
   488750674,   -0.01221,    -0.01611,    +1.02930,   -0.01596,    -0.01383,    -0.01064,  -36.75410,   -62.46387,   -33.69961
   488761621,   -0.00781,    -0.01270,    +1.02051,   -0.01490,    -0.00851,    -0.01064,  -36.75410,   -62.46387,   -33.69961
   488772588,   -0.01758,    -0.00977,    +1.03027,   -0.01490,    -0.01277,    -0.01171,  -36.75410,   -62.46387,   -33.69961
   488783516,   -0.01172,    -0.00635,    +1.01660,   -0.01171,    -0.00532,    -0.01490,  -36.75410,   -59.56699,   -32.65195
   488794463,   -0.01221,    -0.01123,    +1.03516,   -0.01383,    -0.00958,    -0.00958,  -36.75410,   -59.56699,   -32.65195
   488805396,   -0.02246,    -0.01074,    +1.02490,   -0.01383,    -0.00426,    -0.01064,  -36.75410,   -59.56699,   -32.65195
   488816305,   -0.01465,    -0.01074,    +1.01709,   -0.01596,    -0.00851,    -0.00958,  -36.75410,   -59.56699,   -32.65195
   488827296,   -0.02246,    -0.00781,    +1.02783,   -0.01171,    -0.01383,    -0.00958,  -36.75410,   -59.56699,   -32.65195
   488838202,   -0.01660,    -0.02148,    +1.02783,   -0.01277,    -0.00958,    -0.01064,  -36.75410,   -59.56699,   -32.65195
   488849165,   -0.02100,    -0.00879,    +1.02930,   -0.01703,    -0.01490,    -0.01064,  -36.75410,   -59.56699,   -32.65195
   488860082,   -0.01514,    -0.02197,    +1.02393,   -0.01703,    -0.00851,    -0.01064,  -36.75410,   -59.56699,   -32.65195
   488870999,   -0.01611,    -0.02295,    +1.01953,   -0.01596,    -0.01490,    -0.01171,  -36.75410,   -59.56699,   -32.65195
   488881963,   -0.01367,    -0.01416,    +1.01807,   -0.01171,    -0.00851,    -0.01383,  -36.75410,   -59.56699,   -32.65195
   488892870,   -0.01318,    -0.00732,    +1.03076,   -0.01277,    -0.01064,    -0.00851,  -36.75410,   -59.56699,   -32.65195
   488903785,   -0.01465,    -0.00879,    +1.01953,   -0.01277,    -0.01596,    -0.00745,  -36.75410,   -59.56699,   -32.65195
   488914742,   -0.02051,    -0.01562,    +1.02734,   -0.01383,    -0.01064,    -0.01064,  -36.75410,   -59.56699,   -32.65195
   488925649,   -0.01367,    -0.01172,    +1.02393,   -0.01171,    -0.01171,    -0.00639,  -36.75410,   -59.56699,   -32.65195
   488936571,   -0.01025,    -0.01465,    +1.00635,   -0.01809,    -0.00639,    -0.00639,  -36.75410,   -59.56699,   -32.65195
   488947550,   -0.01416,    -0.02197,    +1.01416,   -0.01064,    -0.01064,    -0.00958,  -36.75410,   -59.56699,   -32.65195
   488958456,   -0.00879,    -0.02100,    +1.03271,   -0.01277,    -0.01171,    -0.00213,  -36.75410,   -59.56699,   -32.65195
   488969379,   -0.01562,    -0.01660,    +1.03027,   -0.01383,    -0.01383,    -0.01277,  -36.75410,   -59.56699,   -32.65195
   488980314,   -0.02197,    -0.00977,    +1.02490,   -0.01809,    -0.00639,    -0.00851,  -36.75410,   -59.56699,   -32.65195
   488991234,   -0.01514,    -0.01416,    +1.03027,   -0.01383,    -0.01277,    -0.01490,  -36.75410,   -59.56699,   -32.65195
   489002177,   -0.01807,    -0.01855,    +1.02783,   -0.02022,    -0.00851,    -0.00851,  -36.75410,   -59.56699,   -32.65195
   489013131,   -0.00684,    -0.01562,    +1.02686,   -0.01064,    -0.00958,    -0.01064,  -36.75410,   -59.56699,   -32.65195
   489024100,   -0.02002,    -0.01758,    +1.02734,   -0.01596,    -0.01064,    -0.01277,  -36.75410,   -59.56699,   -32.65195
   489035044,   -0.02295,    -0.02246,    +1.03076,   -0.01596,    -0.01383,    -0.00745,  -37.47832,   -59.92910,   -33.69961
   489045991,   -0.01514,    -0.01270,    +1.03760,   -0.01596,    -0.00958,    -0.01596,  -37.47832,   -59.92910,   -33.69961
   489056962,   -0.01123,    -0.00342,    +1.02539,   -0.00958,    -0.01064,    -0.01490,  -37.47832,   -59.92910,   -33.69961
   489067888,   -0.01367,    -0.00879,    +1.02881,   -0.01171,    -0.00851,    -0.01809,  -37.47832,   -59.92910,   -33.69961
   489078884,   -0.01318,    -0.00928,    +1.03076,   -0.01064,    -0.01171,    -0.01490,  -37.47832,   -59.92910,   -33.69961
   489089845,   -0.01709,    -0.01611,    +1.02295,   -0.01383,    -0.01277,    -0.01064,  -37.47832,   -59.92910,   -33.69961
   489100752,   -0.00928,    -0.01709,    +1.03076,   -0.01490,    -0.01171,    -0.00745,  -37.47832,   -59.92910,   -33.69961
   489111681,   -0.01807,    -0.01807,    +1.02734,   -0.01490,    -0.01064,    -0.01277,  -37.47832,   -59.92910,   -33.69961
   489122587,   -0.01221,    -0.01855,    +1.02148,   -0.01596,    -0.00958,    -0.01064,  -37.47832,   -59.92910,   -33.69961
   489133491,   -0.01465,    -0.01465,    +1.04053,   -0.01490,    -0.01064,    -0.00851,  -37.47832,   -59.92910,   -33.69961
   489144463,   -0.01660,    -0.00928,    +1.02051,   -0.01171,    -0.01171,    -0.00532,  -37.47832,   -59.92910,   -33.69961
   489155385,   -0.01074,    -0.01074,    +1.02148,   -0.01809,    -0.00851,    -0.01064,  -37.47832,   -59.92910,   -33.69961
   489166317,   -0.00635,    -0.01074,    +1.02490,   -0.01490,    -0.01171,    -0.01064,  -37.47832,   -59.92910,   -33.69961
   489177279,   -0.02051,    -0.01318,    +1.02832,   -0.01277,    -0.01277,    -0.00958,  -37.47832,   -59.92910,   -33.69961
   489188242,   -0.01611,    -0.01318,    +1.02686,   -0.01596,    -0.00851,    -0.00958,  -37.47832,   -59.92910,   -33.69961
   489199167,   -0.00977,    -0.00439,    +1.02393,   -0.01490,    -0.00958,    -0.00851,  -37.47832,   -59.92910,   -33.69961
   489210151,   -0.02686,    -0.00586,    +1.01562,   -0.01277,    -0.01277,    -0.01171,  -37.47832,   -59.92910,   -33.69961
   489221057,   -0.01758,    -0.01025,    +1.03271,   -0.01171,    -0.00851,    -0.01064,  -37.47832,   -59.92910,   -33.69961
   489231988,   -0.01514,    -0.00977,    +1.02393,   -0.01596,    -0.00745,    -0.00851,  -37.47832,   -59.92910,   -33.69961
   489242908,   -0.01562,    -0.01123,    +1.00879,   -0.01596,    -0.00639,    -0.01596,  -37.47832,   -59.92910,   -33.69961
   489253828,   -0.00977,    -0.01758,    +1.03027,   -0.01277,    -0.01277,    -0.01171,  -37.47832,   -59.92910,   -33.69961
   489264776,   -0.02490,    -0.01270,    +1.02686,   -0.01596,    -0.01064,    -0.00532,  -37.47832,   -59.92910,   -33.69961
   489275682,   -0.02002,    -0.01074,    +1.01904,   -0.01490,    -0.00958,    -0.01277,  -37.47832,   -59.92910,   -33.69961
   489286656,   -0.01416,    -0.01123,    +1.02100,   -0.01490,    -0.00319,    -0.01064,  -36.21094,   -59.02383,   -33.52500
   489297601,   -0.01172,    -0.01270,    +1.03174,   -0.01277,    -0.00851,    -0.01064,  -36.21094,   -59.02383,   -33.52500
   489308509,   -0.01660,    -0.01465,    +1.03223,   -0.01383,    -0.00851,    -0.01383,  -36.21094,   -59.02383,   -33.52500
   489319490,   -0.01318,    -0.01221,    +1.01953,   -0.01596,    -0.00532,    -0.01277,  -36.21094,   -59.02383,   -33.52500
   489330429,   -0.01465,    -0.01562,    +1.03271,   -0.01383,    -0.00851,    -0.00745,  -36.21094,   -59.02383,   -33.52500
   489341350,   -0.01807,    -0.00049,    +1.02051,   -0.01171,    -0.01064,    -0.00639,  -36.21094,   -59.02383,   -33.52500
   489352320,   -0.02246,    -0.01172,    +1.02197,   -0.01064,    -0.01171,    -0.00958,  -36.21094,   -59.02383,   -33.52500
   489363225,   -0.02051,    -0.02002,    +1.03467,   -0.01703,    -0.00958,    -0.00851,  -36.21094,   -59.02383,   -33.52500
   489374149,   -0.01855,    -0.02148,    +1.02539,   -0.01916,    -0.00851,    -0.01277,  -36.21094,   -59.02383,   -33.52500
   489385065,   -0.02197,    -0.00732,    +1.03516,   -0.01171,    -0.01171,    -0.01383,  -36.21094,   -59.02383,   -33.52500
   489395970,   -0.00635,    -0.00781,    +1.02734,   -0.01277,    -0.01171,    -0.01064,  -36.21094,   -59.02383,   -33.52500
   489406931,   -0.01221,    -0.01172,    +1.03125,   -0.00958,    -0.00958,    -0.00958,  -36.21094,   -59.02383,   -33.52500
   489417886,   -0.01758,    -0.00928,    +1.02148,   -0.01490,    -0.01277,    -0.00851,  -36.21094,   -59.02383,   -33.52500
   489428848,   -0.01709,    -0.01318,    +1.03223,   -0.01596,    -0.00639,    -0.01171,  -36.21094,   -59.02383,   -33.52500
   489439799,   -0.01465,    -0.00488,    +1.02100,   -0.01277,    -0.01383,    -0.01171,  -36.21094,   -59.02383,   -33.52500
   489450707,   -0.00830,    -0.01514,    +1.03516,   -0.01277,    -0.01064,    -0.01064,  -36.21094,   -59.02383,   -33.52500
   489461327,   -0.01514,    -0.02100,    +1.01709,   -0.01490,    -0.00958,    -0.01064,  -36.21094,   -59.02383,   -33.52500
   489471910,   -0.01562,    -0.02002,    +1.01807,   -0.01383,    -0.00958,    -0.01171,  -36.21094,   -59.02383,   -33.52500
   489482494,   -0.00830,    -0.00781,    +1.02393,   -0.01383,    -0.01171,    -0.00532,  -36.21094,   -59.02383,   -33.52500
   489493072,   -0.01904,    -0.01270,    +1.01465,   -0.01277,    -0.00958,    -0.01277,  -36.21094,   -59.02383,   -33.52500
   489503656,   -0.01465,    -0.00879,    +1.03027,   -0.01596,    -0.00958,    -0.01171,  -36.21094,   -59.02383,   -33.52500
   489514261,   -0.01465,    -0.01270,    +1.03711,   -0.01809,    -0.01490,    -0.00958,  -36.21094,   -59.02383,   -33.52500
   489524840,   -0.01074,    -0.01270,    +1.03027,   -0.01171,    -0.00958,    -0.00958,  -36.21094,   -59.02383,   -33.52500
   489535424,   -0.01074,    -0.01025,    +1.03467,   -0.01596,    -0.01171,    -0.00639,  -36.21094,   -59.02383,   -33.52500
   489546037,   -0.01855,    -0.01562,    +1.02393,   -0.01171,    -0.00958,    -0.01277,  -36.21094,   -59.02383,   -33.52500
   489556636,   -0.01758,    -0.01172,    +1.03564,   -0.01383,    -0.00958,    -0.01277,  -36.21094,   -59.02383,   -33.52500
   489567591,   -0.01660,    -0.01074,    +1.03760,   -0.01916,    -0.01064,    -0.00639,  -36.21094,   -59.02383,   -33.52500
   489578513,   -0.00732,    -0.01172,    +1.01855,   -0.01171,    -0.01171,    -0.00958,  -36.21094,   -59.02383,   -33.52500
   489589490,   -0.01465,    -0.01123,    +1.02148,   -0.01490,    -0.01383,    -0.01171,  -36.21094,   -59.02383,   -33.52500
   489600395,   -0.00879,    -0.01270,    +1.03955,   -0.01596,    -0.00745,    -0.01490,  -36.21094,   -59.02383,   -33.52500
   489611306,   -0.01562,    -0.00879,    +1.01416,   -0.01703,    -0.01277,    -0.00958,  -36.21094,   -59.02383,   -33.52500
   489622245,   -0.01514,    -0.01172,    +1.03027,   -0.01490,    -0.01064,    -0.01171,  -36.21094,   -59.02383,   -33.52500
   489633151,   -0.01904,    -0.01123,    +1.02295,   -0.01064,    -0.00958,    -0.00958,  -36.21094,   -59.02383,   -33.52500
   489644122,   -0.02051,    -0.01270,    +1.02539,   -0.01064,    -0.00745,    -0.00958,  -36.21094,   -59.02383,   -33.52500
   489655039,   -0.00879,    -0.01660,    +1.03516,   -0.01277,    -0.00745,    -0.01064,  -36.21094,   -59.02383,   -33.52500
   489665984,   -0.02100,    -0.01025,    +1.03516,   -0.01703,    -0.01383,    -0.01171,  -36.21094,   -59.02383,   -33.52500
   489676954,   -0.01562,    -0.01318,    +1.03711,   -0.01383,    -0.00745,    -0.01277,  -36.21094,   -59.02383,   -33.52500
   489687862,   -0.01758,    -0.00732,    +1.03320,   -0.01490,    -0.01171,    -0.00745,  -36.21094,   -59.02383,   -33.52500
   489698840,   -0.01514,    -0.01172,    +1.02393,   -0.01703,    -0.01064,    -0.01277,  -36.21094,   -59.02383,   -33.52500
   489709802,   -0.01172,    -0.01514,    +1.01318,   -0.00958,    -0.00958,    -0.00639,  -36.21094,   -59.02383,   -33.52500
   489720730,   -0.01465,    -0.01318,    +1.02441,   -0.01490,    -0.00745,    -0.01064,  -36.21094,   -59.02383,   -33.52500
   489731714,   -0.00928,    -0.00049,    +1.02393,   -0.01277,    -0.01171,    -0.00745,  -36.21094,   -59.02383,   -33.52500
   489742621,   -0.02490,    -0.00537,    +1.02637,   -0.01596,    -0.00851,    -0.01064,  -36.21094,   -59.02383,   -33.52500
   489753534,   -0.00781,    -0.01318,    +1.02783,   -0.01383,    -0.01171,    -0.01490,  -36.21094,   -59.02383,   -33.52500
   489764521,   -0.01367,    -0.01611,    +1.03662,   -0.01596,    -0.01277,    -0.01277,  -36.21094,   -59.02383,   -33.52500
   489775457,   -0.01221,    -0.01318,    +1.02686,   -0.01490,    -0.00851,    -0.01171,  -36.21094,   -59.02383,   -33.52500
   489786468,   -0.01562,    -0.01221,    +1.03906,   -0.01277,    -0.01064,    -0.00851,  -36.02988,   -59.56699,   -32.30273
   489797432,   -0.01562,    -0.00781,    +1.02393,   -0.01596,    -0.01171,    -0.01277,  -36.02988,   -59.56699,   -32.30273
   489808341,   -0.00732,    -0.02002,    +1.02490,   -0.00958,    -0.01277,    -0.00958,  -36.02988,   -59.56699,   -32.30273
   489819339,   -0.02295,    -0.01611,    +1.02881,   -0.01490,    -0.01171,    -0.01064,  -36.02988,   -59.56699,   -32.30273
   489830303,   -0.01367,    -0.01562,    +1.03223,   -0.01383,    -0.01064,    -0.00958,  -36.02988,   -59.56699,   -32.30273
   489841223,   -0.01611,    -0.01270,    +1.04297,   -0.01916,    -0.00958,    -0.01171,  -36.02988,   -59.56699,   -32.30273
   489852188,   -0.01367,    -0.01123,    +1.01758,   -0.01277,    -0.01064,    -0.01383,  -36.02988,   -59.56699,   -32.30273
   489863115,   -0.01562,    -0.01123,    +1.03516,   -0.01383,    -0.00958,    -0.01064,  -36.02988,   -59.56699,   -32.30273
   489874127,   -0.00732,    -0.01270,    +1.03027,   -0.01171,    -0.00851,    -0.00958,  -36.02988,   -59.56699,   -32.30273
   489885034,   -0.02539,    -0.01123,    +1.03125,   -0.01064,    -0.00639,    -0.00745,  -36.02988,   -59.56699,   -32.30273
   489895967,   -0.01025,    -0.02002,    +1.03809,   -0.01703,    -0.01383,    -0.01277,  -36.02988,   -59.56699,   -32.30273
   489906958,   -0.01562,    -0.01514,    +1.04102,   -0.01383,    -0.01171,    -0.00958,  -36.02988,   -59.56699,   -32.30273
   489917864,   -0.01025,    -0.01465,    +1.02637,   -0.01916,    -0.00532,    -0.01171,  -36.02988,   -59.56699,   -32.30273
   489928781,   -0.01172,    -0.01904,    +1.01709,   -0.01596,    -0.01277,    -0.01277,  -36.02988,   -59.56699,   -32.30273
   489939735,   -0.01562,    -0.01904,    +1.02734,   -0.01703,    -0.00639,    -0.01277,  -36.02988,   -59.56699,   -32.30273
   489950642,   -0.01172,    -0.01758,    +1.03320,   -0.01277,    -0.00958,    -0.01171,  -36.02988,   -59.56699,   -32.30273
   489961622,   -0.01025,    -0.01709,    +1.04199,   -0.00639,    -0.01171,    -0.01064,  -36.02988,   -59.56699,   -32.30273
   489972581,   -0.02539,    -0.01318,    +1.01514,   -0.01809,    -0.00745,    -0.00958,  -36.02988,   -59.56699,   -32.30273
   489983531,   -0.01465,    -0.00879,    +1.03076,   -0.01596,    -0.01277,    -0.00851,  -36.02988,   -59.56699,   -32.30273
   489994559,   -0.01465,    -0.00977,    +1.01562,   -0.01277,    -0.00745,    -0.01171,  -36.02988,   -59.56699,   -32.30273
   490005462,   -0.01367,    -0.00684,    +1.02246,   -0.01596,    -0.00851,    -0.00851,  -36.02988,   -59.56699,   -32.30273
   490016388,   -0.01074,    -0.00146,    +1.03223,   -0.01490,    -0.00958,    -0.01277,  -36.02988,   -59.56699,   -32.30273
   490027355,   -0.00977,    -0.01221,    +1.03027,   -0.01703,    -0.00745,    -0.01490,  -35.84883,   -59.38594,   -32.12812
   490038276,   -0.01514,    -0.01562,    +1.01807,   -0.01277,    -0.00958,    -0.01171,  -35.84883,   -59.38594,   -32.12812
   490049234,   -0.01221,    -0.01562,    +1.02393,   -0.01383,    -0.01064,    -0.01596,  -35.84883,   -59.38594,   -32.12812
   490060154,   -0.01221,    -0.01172,    +1.02881,   -0.01703,    -0.00851,    -0.00851,  -35.84883,   -59.38594,   -32.12812
   490071070,   -0.01660,    -0.01758,    +1.01416,   -0.01171,    -0.01064,    -0.00958,  -35.84883,   -59.38594,   -32.12812
   490082023,   -0.01758,    -0.00879,    +1.03271,   -0.01596,    -0.01064,    -0.00958,  -35.84883,   -59.38594,   -32.12812
   490092931,   -0.01758,    -0.00879,    +1.03809,   -0.01383,    -0.00851,    -0.00851,  -35.84883,   -59.38594,   -32.12812
   490103930,   -0.02246,    -0.02051,    +1.03662,   -0.01490,    -0.00745,    -0.01064,  -35.84883,   -59.38594,   -32.12812
   490114883,   -0.01465,    -0.01318,    +1.02197,   -0.01277,    -0.01277,    -0.00851,  -35.84883,   -59.38594,   -32.12812
   490125803,   -0.02197,    -0.01221,    +1.03564,   -0.01596,    -0.01064,    -0.01064,  -35.84883,   -59.38594,   -32.12812
   490136846,   -0.01758,    -0.01221,    +1.03076,   -0.01383,    -0.00958,    -0.01171,  -35.84883,   -59.38594,   -32.12812
   490147812,   -0.01562,    -0.01514,    +1.02686,   -0.01383,    -0.01064,    -0.00639,  -35.84883,   -59.38594,   -32.12812
   490158756,   -0.01221,    -0.00928,    +1.02588,   -0.01596,    -0.01277,    -0.00639,  -35.84883,   -59.38594,   -32.12812
   490169739,   -0.02295,    -0.02051,    +1.03857,   -0.01277,    -0.00958,    -0.01064,  -35.84883,   -59.38594,   -32.12812
   490180645,   -0.01660,    -0.01025,    +1.01904,   -0.01490,    -0.00851,    -0.01171,  -35.84883,   -59.38594,   -32.12812
   490191574,   -0.00977,    -0.01660,    +1.03564,   -0.01383,    -0.00958,    -0.01064,  -35.84883,   -59.38594,   -32.12812
   490202509,   -0.02441,    -0.00488,    +1.03516,   -0.01383,    -0.01703,    -0.01277,  -35.84883,   -59.38594,   -32.12812
   490213416,   -0.00879,    -0.01172,    +1.02393,   -0.01383,    -0.00958,    -0.01383,  -35.84883,   -59.38594,   -32.12812
   490224448,   -0.00195,    -0.01807,    +1.02734,   -0.01490,    -0.01171,    -0.00958,  -35.84883,   -59.38594,   -32.12812
   490235383,   -0.00879,    -0.00732,    +1.01709,   -0.01064,    -0.01171,    -0.01064,  -35.84883,   -59.38594,   -32.12812
   490246331,   -0.01465,    -0.01562,    +1.02832,   -0.01703,    -0.00639,    -0.00958,  -35.84883,   -59.38594,   -32.12812
   490257261,   -0.01514,    -0.02002,    +1.02051,   -0.01490,    -0.00958,    -0.00958,  -35.84883,   -59.38594,   -32.12812
   490268167,   -0.01855,    -0.01562,    +1.01514,   -0.01277,    -0.01277,    -0.00745,  -35.84883,   -59.38594,   -32.12812
   490279133,   -0.02490,    -0.02100,    +1.02197,   -0.01064,    -0.01277,    -0.01064,  -36.75410,   -60.29121,   -31.60430
   490290088,   -0.01123,    -0.00928,    +1.03760,   -0.01277,    -0.01171,    -0.01171,  -36.75410,   -60.29121,   -31.60430
   490301011,   -0.00732,    -0.01562,    +1.02490,   -0.01383,    -0.01171,    -0.00958,  -36.75410,   -60.29121,   -31.60430
   490311995,   -0.01514,    -0.01465,    +1.01904,   -0.01277,    -0.00958,    -0.01171,  -36.75410,   -60.29121,   -31.60430
   490322908,   -0.01221,    -0.01562,    +1.02295,   -0.01703,    -0.00958,    -0.00532,  -36.75410,   -60.29121,   -31.60430
   490333818,   -0.02490,    -0.01025,    +1.04248,   -0.01809,    -0.00851,    -0.01277,  -36.75410,   -60.29121,   -31.60430
   490344810,   -0.01660,    -0.01758,    +1.01660,   -0.01809,    -0.01490,    -0.00851,  -36.75410,   -60.29121,   -31.60430
   490355716,   -0.01904,    -0.01465,    +1.01904,   -0.01171,    -0.01171,    -0.01277,  -36.75410,   -60.29121,   -31.60430
   490366677,   -0.01172,    +0.00195,    +1.02539,   -0.01064,    -0.00639,    -0.00851,  -36.75410,   -60.29121,   -31.60430
   490377640,   -0.01074,    -0.01270,    +1.03076,   -0.01703,    -0.01171,    -0.01277,  -36.75410,   -60.29121,   -31.60430
   490388544,   -0.01514,    -0.01562,    +1.01807,   -0.02022,    -0.00958,    -0.01171,  -36.75410,   -60.29121,   -31.60430
   490399551,   -0.01514,    -0.01855,    +1.02197,   -0.01064,    -0.01277,    -0.00851,  -36.75410,   -60.29121,   -31.60430
   490410509,   -0.01074,    -0.01172,    +1.03027,   -0.01490,    -0.00958,    -0.00851,  -36.75410,   -60.29121,   -31.60430
   490421438,   -0.01611,    -0.01074,    +1.02441,   -0.01490,    -0.01064,    -0.01490,  -36.75410,   -60.29121,   -31.60430
   490432416,   -0.01367,    -0.01318,    +1.04004,   -0.01277,    -0.01064,    -0.01490,  -36.75410,   -60.29121,   -31.60430
   490443322,   -0.00928,    -0.01318,    +1.01904,   -0.01383,    -0.00851,    -0.00958,  -36.75410,   -60.29121,   -31.60430
   490454314,   -0.01318,    -0.00977,    +1.03467,   -0.01171,    -0.00426,    -0.00851,  -36.75410,   -60.29121,   -31.60430
   490465221,   -0.00684,    -0.01660,    +1.01855,   -0.01703,    -0.01171,    -0.00851,  -36.75410,   -60.29121,   -31.60430
   490476139,   -0.01025,    -0.01221,    +1.02246,   -0.01916,    -0.01277,    -0.00958,  -36.75410,   -60.29121,   -31.60430
   490487205,   -0.00830,    -0.01318,    +1.02148,   -0.01171,    -0.01171,    -0.00745,  -36.75410,   -60.29121,   -31.60430
   490498112,   -0.01709,    -0.01807,    +1.02734,   -0.01490,    -0.01064,    -0.01064,  -36.75410,   -60.29121,   -31.60430
   490509025,   -0.01123,    -0.01074,    +1.02930,   -0.01596,    -0.00532,    -0.00745,  -36.75410,   -60.29121,   -31.60430
   490519976,   -0.01709,    -0.01611,    +1.03125,   -0.01490,    -0.00745,    -0.01277,  -36.75410,   -60.29121,   -31.60430
   490530881,   -0.01855,    -0.01270,    +1.02246,   -0.01596,    -0.01171,    -0.01064,  -37.29727,   -59.38594,   -32.12812
   490541843,   -0.02148,    -0.01709,    +1.04199,   -0.01490,    -0.00851,    -0.01277,  -37.29727,   -59.38594,   -32.12812
   490552790,   -0.01172,    -0.01074,    +1.03174,   -0.01277,    -0.00851,    -0.01171,  -37.29727,   -59.38594,   -32.12812
   490563710,   -0.02783,    -0.02148,    +1.03662,   -0.01383,    -0.01064,    -0.01277,  -37.29727,   -59.38594,   -32.12812
   490574708,   -0.01709,    -0.01465,    +1.03662,   -0.01596,    -0.00958,    -0.00745,  -37.29727,   -59.38594,   -32.12812
   490585630,   -0.00586,    -0.01074,    +1.01855,   -0.01809,    -0.01064,    -0.01064,  -37.29727,   -59.38594,   -32.12812
   490596545,   -0.02002,    -0.01562,    +1.03711,   -0.01383,    -0.01064,    -0.00851,  -37.29727,   -59.38594,   -32.12812
   490607547,   -0.00781,    -0.01025,    +1.03320,   -0.01703,    -0.01490,    -0.01277,  -37.29727,   -59.38594,   -32.12812
   490618469,   -0.02051,    -0.01172,    +1.02637,   -0.01064,    -0.00745,    -0.00958,  -37.29727,   -59.38594,   -32.12812
   490629382,   -0.01318,    -0.01758,    +1.02783,   -0.01809,    -0.01171,    -0.01277,  -37.29727,   -59.38594,   -32.12812
   490640329,   -0.00586,    -0.01758,    +1.02051,   -0.01383,    -0.01383,    -0.00851,  -37.29727,   -59.38594,   -32.12812
   490651243,   -0.01758,    -0.01465,    +1.01758,   -0.01383,    -0.00745,    -0.01064,  -37.29727,   -59.38594,   -32.12812
   490662185,   -0.02148,    -0.01416,    +1.01855,   -0.01277,    -0.01171,    -0.01064,  -37.29727,   -59.38594,   -32.12812
   490673090,   -0.01904,    -0.01221,    +1.02051,   -0.01171,    -0.00958,    -0.00745,  -37.29727,   -59.38594,   -32.12812
   490684091,   -0.01709,    -0.02002,    +1.02441,   -0.01490,    -0.00745,    -0.01277,  -37.29727,   -59.38594,   -32.12812
   490695044,   -0.02100,    -0.02051,    +1.02832,   -0.01490,    -0.00958,    -0.00958,  -37.29727,   -59.38594,   -32.12812
   490705963,   -0.01172,    -0.01611,    +1.02539,   -0.01916,    -0.01277,    -0.00958,  -37.29727,   -59.38594,   -32.12812
   490716948,   -0.01367,    -0.01465,    +1.03027,   -0.00639,    -0.01277,    -0.01383,  -37.29727,   -59.38594,   -32.12812
   490727910,   -0.01807,    -0.01221,    +1.01904,   -0.01383,    -0.01064,    -0.00851,  -37.29727,   -59.38594,   -32.12812
   490738848,   -0.01562,    -0.00537,    +1.02686,   -0.01383,    -0.00958,    -0.00958,  -37.29727,   -59.38594,   -32.12812
   490749830,   -0.01123,    -0.00635,    +1.02979,   -0.01277,    -0.01064,    -0.00639,  -37.29727,   -59.38594,   -32.12812
   490760739,   -0.02002,    -0.00684,    +1.02100,   -0.01277,    -0.01171,    -0.00851,  -37.29727,   -59.38594,   -32.12812
   490771655,   -0.02344,    -0.01709,    +1.03369,   -0.01277,    -0.00958,    -0.00745,  -37.29727,   -59.38594,   -32.12812
   490782599,   -0.01660,    -0.02148,    +1.02197,   -0.01596,    -0.00851,    -0.01064,  -36.57305,   -59.74805,   -32.12812
   490793506,   -0.00586,    -0.01416,    +1.01709,   -0.01383,    -0.00639,    -0.01064,  -36.57305,   -59.74805,   -32.12812
   490804517,   -0.01855,    -0.01807,    +1.02783,   -0.01490,    -0.01383,    -0.00958,  -36.57305,   -59.74805,   -32.12812
   490815490,   -0.01562,    -0.00293,    +1.02295,   -0.01064,    -0.01383,    -0.01171,  -36.57305,   -59.74805,   -32.12812
   490826409,   -0.01465,    -0.01074,    +1.01514,   -0.01703,    -0.01064,    -0.00958,  -36.57305,   -59.74805,   -32.12812
   490837414,   -0.01172,    -0.00439,    +1.02881,   -0.01383,    -0.01064,    -0.01383,  -36.57305,   -59.74805,   -32.12812
   490848330,   -0.01416,    -0.01709,    +1.02295,   -0.01064,    -0.00851,    -0.01277,  -36.57305,   -59.74805,   -32.12812
   490859298,   -0.00732,    -0.01807,    +1.02490,   -0.01383,    -0.00745,    -0.01277,  -36.57305,   -59.74805,   -32.12812
   490870227,   -0.01855,    -0.00732,    +1.04150,   -0.01277,    -0.00745,    -0.01171,  -36.57305,   -59.74805,   -32.12812
   490881155,   -0.01562,    -0.00732,    +1.02979,   -0.01703,    -0.01064,    -0.00958,  -36.57305,   -59.74805,   -32.12812
   490892126,   -0.01709,    -0.01318,    +1.02100,   -0.01277,    -0.01064,    -0.01383,  -36.57305,   -59.74805,   -32.12812
   490903034,   -0.00830,    -0.01758,    +1.03027,   -0.01277,    -0.01490,    -0.00745,  -36.57305,   -59.74805,   -32.12812
   490913963,   -0.01611,    -0.00732,    +1.03369,   -0.01171,    -0.01277,    -0.00851,  -36.57305,   -59.74805,   -32.12812
   490924882,   -0.01172,    -0.01416,    +1.03564,   -0.01277,    -0.01171,    -0.01064,  -36.57305,   -59.74805,   -32.12812
   490935789,   -0.01758,    -0.01074,    +1.03809,   -0.00958,    -0.00426,    -0.01064,  -36.57305,   -59.74805,   -32.12812
   490946746,   -0.01416,    -0.01611,    +1.02393,   -0.01916,    -0.00745,    -0.00958,  -36.57305,   -59.74805,   -32.12812
   490957710,   -0.00342,    -0.01465,    +1.01709,   -0.01596,    -0.00851,    -0.01171,  -36.57305,   -59.74805,   -32.12812
   490968617,   -0.00879,    -0.01904,    +1.03174,   -0.01277,    -0.01277,    -0.01064,  -36.57305,   -59.74805,   -32.12812
   490979593,   -0.01318,    -0.01270,    +1.02881,   -0.01596,    -0.00745,    -0.00851,  -36.57305,   -59.74805,   -32.12812
   490990555,   -0.02051,    -0.01074,    +1.01953,   -0.01703,    -0.00958,    -0.00958,  -36.57305,   -59.74805,   -32.12812
   491001487,   -0.01514,    -0.01514,    +1.02295,   -0.01277,    -0.01171,    -0.01277,  -36.57305,   -59.74805,   -32.12812
   491012461,   -0.02148,    -0.01514,    +1.02734,   -0.01383,    -0.01064,    -0.01490,  -36.57305,   -59.74805,   -32.12812
   491023384,   -0.01465,    -0.01270,    +1.02881,   -0.01383,    -0.00958,    -0.01064,  -36.57305,   -59.74805,   -32.12812
   491034310,   -0.01123,    -0.01221,    +1.03613,   -0.00958,    -0.01383,    -0.01490,  -37.65938,   -59.38594,   -32.82656
   491045283,   -0.00684,    -0.01855,    +1.03125,   -0.01383,    -0.01171,    -0.01277,  -37.65938,   -59.38594,   -32.82656
   491056203,   -0.01074,    -0.01660,    +1.02393,   -0.01809,    -0.00851,    -0.00851,  -37.65938,   -59.38594,   -32.82656
   491067179,   -0.00830,    -0.01855,    +1.01855,   -0.01596,    -0.01277,    -0.01171,  -37.65938,   -59.38594,   -32.82656
   491078088,   -0.01172,    -0.01465,    +1.03613,   -0.00958,    -0.01064,    -0.00851,  -37.65938,   -59.38594,   -32.82656
   491089003,   -0.00830,    -0.01123,    +1.03711,   -0.01490,    -0.00639,    -0.01171,  -37.65938,   -59.38594,   -32.82656
   491099950,   -0.02051,    -0.01416,    +1.01758,   -0.01277,    -0.01490,    -0.01064,  -37.65938,   -59.38594,   -32.82656
   491110875,   -0.01855,    -0.01465,    +1.02881,   -0.01490,    -0.00745,    -0.01171,  -37.65938,   -59.38594,   -32.82656
   491121830,   -0.01123,    -0.00879,    +1.02246,   -0.01596,    -0.01064,    -0.00958,  -37.65938,   -59.38594,   -32.82656
   491132785,   -0.01758,    -0.01172,    +1.02295,   -0.01490,    -0.01171,    -0.01064,  -37.65938,   -59.38594,   -32.82656
   491143707,   -0.02441,    -0.02100,    +1.02686,   -0.01490,    -0.01916,    -0.01277,  -37.65938,   -59.38594,   -32.82656
   491154734,   -0.01416,    -0.01074,    +1.01611,   -0.00958,    -0.00851,    -0.00958,  -37.65938,   -59.38594,   -32.82656
   491165641,   -0.01904,    -0.02051,    +1.03809,   -0.01171,    -0.01383,    -0.01277,  -37.65938,   -59.38594,   -32.82656
   491176572,   -0.00879,    -0.01514,    +1.02979,   -0.01277,    -0.01383,    -0.00851,  -37.65938,   -59.38594,   -32.82656
   491187559,   -0.01514,    -0.02002,    +1.02051,   -0.01383,    -0.00958,    -0.01277,  -37.65938,   -59.38594,   -32.82656
   491198527,   -0.00732,    -0.00879,    +1.02686,   -0.01490,    -0.00532,    -0.00958,  -37.65938,   -59.38594,   -32.82656
   491209444,   -0.01465,    -0.02197,    +1.02490,   -0.00958,    -0.01171,    -0.00851,  -37.65938,   -59.38594,   -32.82656
   491220369,   -0.01709,    -0.02148,    +1.02002,   -0.00958,    -0.01064,    -0.00958,  -37.65938,   -59.38594,   -32.82656
   491231285,   -0.01025,    -0.01514,    +1.03516,   -0.01277,    -0.01171,    -0.00745,  -37.65938,   -59.38594,   -32.82656
   491242228,   -0.01514,    -0.00977,    +1.03467,   -0.01171,    -0.00958,    -0.01809,  -37.65938,   -59.38594,   -32.82656
   491253136,   -0.02393,    -0.01221,    +1.03906,   -0.02128,    -0.00532,    -0.00851,  -37.65938,   -59.38594,   -32.82656
   491264080,   -0.00586,    -0.00977,    +1.01611,   -0.01596,    -0.01171,    -0.01383,  -37.65938,   -59.38594,   -32.82656
   491275010,   -0.01758,    -0.01660,    +1.04639,   -0.01383,    -0.01064,    -0.01171,  -36.75410,   -60.29121,   -33.35039
   491285930,   -0.01562,    -0.01758,    +1.03613,   -0.01277,    -0.00958,    -0.01383,  -36.75410,   -60.29121,   -33.35039
   491296903,   -0.01611,    -0.01025,    +1.03467,   -0.01916,    -0.00851,    -0.01171,  -36.75410,   -60.29121,   -33.35039
   491307867,   -0.01611,    -0.01270,    +1.04297,   -0.01383,    -0.01064,    -0.00851,  -36.75410,   -60.29121,   -33.35039
   491318785,   -0.01855,    -0.01270,    +1.03467,   -0.01490,    -0.01383,    -0.00958,  -36.75410,   -60.29121,   -33.35039
   491329794,   -0.00732,    -0.00928,    +1.02393,   -0.01277,    -0.01064,    -0.01277,  -36.75410,   -60.29121,   -33.35039
   491340699,   -0.01904,    -0.01514,    +1.01318,   -0.01383,    -0.00851,    -0.01277,  -36.75410,   -60.29121,   -33.35039
   491351628,   -0.00977,    -0.01514,    +1.02197,   -0.01383,    -0.01064,    -0.00851,  -36.75410,   -60.29121,   -33.35039
   491362572,   -0.01758,    -0.00977,    +1.01514,   -0.01703,    -0.01277,    -0.01064,  -36.75410,   -60.29121,   -33.35039
   491373478,   -0.01367,    -0.01416,    +1.02686,   -0.01383,    -0.00639,    -0.01383,  -36.75410,   -60.29121,   -33.35039
   491384457,   -0.01562,    -0.01611,    +1.03174,   -0.01064,    -0.00958,    -0.01277,  -36.75410,   -60.29121,   -33.35039
   491395409,   -0.01807,    -0.01074,    +1.02100,   -0.01171,    -0.01277,    -0.01171,  -36.75410,   -60.29121,   -33.35039
   491406345,   -0.01904,    -0.01025,    +1.03906,   -0.01171,    -0.01171,    -0.01064,  -36.75410,   -60.29121,   -33.35039
   491417317,   -0.01318,    -0.00488,    +1.02539,   -0.01171,    -0.01490,    -0.00958,  -36.75410,   -60.29121,   -33.35039
   491428278,   -0.01123,    -0.01807,    +1.03369,   -0.01064,    -0.01277,    -0.01064,  -36.75410,   -60.29121,   -33.35039
   491439204,   -0.01318,    -0.00098,    +1.01758,   -0.01383,    -0.01064,    -0.00851,  -36.75410,   -60.29121,   -33.35039
   491450137,   -0.01318,    -0.01074,    +1.02002,   -0.01277,    -0.01277,    -0.01171,  -36.75410,   -60.29121,   -33.35039
   491461056,   -0.00342,    -0.01562,    +1.01953,   -0.01490,    -0.00958,    -0.00958,  -36.75410,   -60.29121,   -33.35039
   491472025,   -0.02588,    -0.01807,    +1.02783,   -0.01383,    -0.01490,    -0.01064,  -36.75410,   -60.29121,   -33.35039
   491482930,   -0.00977,    -0.02100,    +1.03760,   -0.01490,    -0.00958,    -0.00851,  -36.75410,   -60.29121,   -33.35039
   491493915,   -0.00244,    -0.01855,    +1.02295,   -0.01596,    -0.01277,    -0.00958,  -36.75410,   -60.29121,   -33.35039
   491504819,   -0.00879,    -0.01074,    +1.03857,   -0.01916,    -0.01383,    -0.01490,  -36.75410,   -60.29121,   -33.35039
   491515725,   -0.01660,    -0.01562,    +1.03027,   -0.01064,    -0.01171,    -0.00851,  -36.75410,   -60.29121,   -33.35039
   491526665,   -0.00781,    -0.00928,    +1.03174,   -0.01490,    -0.01171,    -0.01171,  -36.75410,   -60.29121,   -33.35039
   491537636,   -0.01709,    -0.00977,    +1.02734,   -0.01916,    -0.01277,    -0.01277,  -36.75410,   -60.29121,   -33.35039
   491548624,   -0.00830,    -0.00879,    +1.03613,   -0.01490,    -0.00639,    -0.01490,  -36.75410,   -60.29121,   -33.35039
   491559592,   -0.01562,    -0.00586,    +1.01758,   -0.01064,    -0.01383,    -0.01064,  -36.75410,   -60.29121,   -33.35039
   491570546,   -0.01611,    -0.00928,    +1.02637,   -0.01277,    -0.01277,    -0.01277,  -36.75410,   -60.29121,   -33.35039
   491581496,   -0.01611,    -0.01172,    +1.02588,   -0.01916,    -0.00958,    -0.01277,  -36.75410,   -60.29121,   -33.35039
   491592476,   -0.02002,    -0.01562,    +1.02393,   -0.01277,    -0.00958,    -0.00745,  -36.75410,   -60.29121,   -33.35039
   491603408,   -0.01025,    -0.01025,    +1.03027,   -0.01490,    -0.01064,    -0.00958,  -36.75410,   -60.29121,   -33.35039
   491614340,   -0.01123,    -0.00586,    +1.01709,   -0.01383,    -0.01064,    -0.01383,  -36.75410,   -60.29121,   -33.35039
   491625248,   -0.01709,    -0.01904,    +1.02197,   -0.01490,    -0.01064,    -0.01171,  -36.75410,   -60.29121,   -33.35039
   491636154,   -0.00732,    -0.01123,    +1.02783,   -0.01277,    -0.01596,    -0.00851,  -36.75410,   -60.29121,   -33.35039
   491647058,   -0.01807,    -0.00684,    +1.03174,   -0.01596,    -0.01171,    -0.01064,  -36.75410,   -60.29121,   -33.35039
   491657964,   -0.01123,    -0.01416,    +1.03125,   -0.01277,    -0.01383,    -0.01171,  -36.21094,   -61.92071,   -33.52500
   491668878,   -0.02002,    -0.02197,    +1.02393,   -0.01171,    -0.00958,    -0.01171,  -36.21094,   -61.92071,   -33.52500
   491679825,   -0.02393,    -0.01465,    +1.02051,   -0.01171,    -0.00851,    -0.01277,  -36.21094,   -61.92071,   -33.52500
   491690731,   -0.01904,    -0.00146,    +1.02295,   -0.01277,    -0.01383,    -0.01490,  -36.21094,   -61.92071,   -33.52500
   491701689,   -0.01025,    -0.01904,    +1.02441,   -0.01596,    -0.01064,    -0.01171,  -36.21094,   -61.92071,   -33.52500
   491712641,   -0.02051,    -0.01416,    +1.02100,   -0.01064,    -0.01277,    -0.01277,  -36.21094,   -61.92071,   -33.52500
   491723559,   -0.01465,    -0.00977,    +1.02490,   -0.01916,    -0.01383,    -0.01596,  -36.21094,   -61.92071,   -33.52500
   491734577,   -0.01221,    -0.00537,    +1.02832,   -0.01171,    -0.00851,    -0.00851,  -36.21094,   -61.92071,   -33.52500
   491745485,   -0.01074,    -0.01904,    +1.02686,   -0.01490,    -0.01171,    -0.00958,  -36.21094,   -61.92071,   -33.52500
   491756405,   -0.01514,    -0.00732,    +1.02832,   -0.01277,    -0.00958,    -0.01171,  -36.21094,   -61.92071,   -33.52500
   491767405,   -0.01514,    -0.01514,    +1.03076,   -0.01809,    -0.01383,    -0.00851,  -36.21094,   -61.92071,   -33.52500
   491778310,   -0.01514,    -0.00977,    +1.03564,   -0.01383,    -0.00745,    -0.01383,  -36.21094,   -61.92071,   -33.52500
   491789223,   -0.02148,    -0.01611,    +1.03564,   -0.01383,    -0.00532,    -0.01383,  -36.21094,   -61.92071,   -33.52500
   491800177,   -0.01807,    -0.01270,    +1.02148,   -0.01277,    -0.01277,    -0.00851,  -36.21094,   -61.92071,   -33.52500
   491811086,   -0.01318,    -0.01514,    +1.01123,   -0.01490,    -0.01171,    -0.00532,  -36.21094,   -61.92071,   -33.52500
   491822056,   -0.01318,    -0.00879,    +1.02734,   -0.01809,    -0.01064,    -0.00745,  -36.21094,   -61.92071,   -33.52500
   491833019,   -0.01465,    -0.01758,    +1.02588,   -0.01490,    -0.00851,    -0.00958,  -36.21094,   -61.92071,   -33.52500
   491843955,   -0.02051,    -0.01025,    +1.02490,   -0.01064,    -0.01171,    -0.00745,  -36.21094,   -61.92071,   -33.52500
   491854901,   -0.00635,    -0.00684,    +1.03027,   -0.01490,    -0.01064,    -0.01064,  -36.21094,   -61.92071,   -33.52500
   491865822,   -0.02002,    -0.01318,    +1.01953,   -0.01596,    -0.00745,    -0.01171,  -36.21094,   -61.92071,   -33.52500
   491876798,   -0.00586,    -0.01904,    +1.03271,   -0.01703,    -0.00745,    -0.01064,  -36.21094,   -61.92071,   -33.52500
   491887765,   -0.00244,    -0.00635,    +1.02246,   -0.01490,    -0.01383,    -0.00958,  -36.21094,   -61.92071,   -33.52500
   491898782,   -0.01562,    -0.00586,    +1.01758,   -0.01383,    -0.00639,    -0.01383,  -37.29727,   -59.74805,   -32.47734
   491909759,   -0.01904,    -0.01709,    +1.03662,   -0.01171,    -0.01171,    -0.01171,  -37.29727,   -59.74805,   -32.47734
   491920668,   -0.01367,    -0.02002,    +1.02588,   -0.01809,    -0.00851,    -0.00851,  -37.29727,   -59.74805,   -32.47734
   491931601,   -0.01367,    -0.01123,    +1.02246,   -0.00851,    -0.00958,    -0.01064,  -37.29727,   -59.74805,   -32.47734
   491942520,   -0.01904,    +0.00049,    +1.02783,   -0.01277,    -0.01277,    -0.01064,  -37.29727,   -59.74805,   -32.47734
   491953426,   -0.01562,    -0.01465,    +1.00977,   -0.01703,    -0.01383,    -0.00532,  -37.29727,   -59.74805,   -32.47734
   491964461,   -0.02197,    -0.01123,    +1.02979,   -0.02022,    -0.00745,    -0.00958,  -37.29727,   -59.74805,   -32.47734
   491975408,   -0.01221,    -0.00342,    +1.02148,   -0.01277,    -0.00851,    -0.01277,  -37.29727,   -59.74805,   -32.47734
   491986333,   -0.01562,    -0.01074,    +1.03076,   -0.01703,    -0.00851,    -0.01383,  -37.29727,   -59.74805,   -32.47734
   491997289,   -0.01758,    -0.01123,    +1.02197,   -0.01703,    -0.01171,    -0.01064,  -37.29727,   -59.74805,   -32.47734
   492008245,   -0.01758,    -0.00684,    +1.00879,   -0.01596,    -0.00851,    -0.01596,  -37.29727,   -59.74805,   -32.47734
   492019167,   -0.01172,    -0.01514,    +1.02637,   -0.01490,    -0.01171,    -0.01277,  -37.29727,   -59.74805,   -32.47734
   492030156,   -0.01904,    -0.00293,    +1.02295,   -0.01277,    -0.01277,    -0.01064,  -37.29727,   -59.74805,   -32.47734
   492041063,   -0.02148,    -0.00977,    +1.02734,   -0.01383,    -0.00851,    -0.01171,  -37.29727,   -59.74805,   -32.47734
   492052007,   -0.02100,    -0.01074,    +1.01318,   -0.01383,    -0.00851,    -0.01277,  -37.29727,   -59.74805,   -32.47734
   492062914,   -0.01611,    -0.01416,    +1.01855,   -0.01490,    -0.00745,    -0.01277,  -37.29727,   -59.74805,   -32.47734
   492073844,   -0.02051,    -0.01270,    +1.03760,   -0.00958,    -0.00639,    -0.00958,  -37.29727,   -59.74805,   -32.47734
   492084789,   -0.01465,    -0.01123,    +1.03516,   -0.01809,    -0.01171,    -0.00958,  -37.29727,   -59.74805,   -32.47734
   492095696,   -0.01172,    -0.01465,    +1.02490,   -0.01809,    -0.01064,    -0.00851,  -37.29727,   -59.74805,   -32.47734
   492106644,   -0.01074,    -0.01318,    +1.01074,   -0.01490,    -0.00745,    -0.00851,  -37.29727,   -59.74805,   -32.47734
   492117589,   -0.01758,    -0.01318,    +1.02686,   -0.01383,    -0.01277,    -0.00851,  -37.29727,   -59.74805,   -32.47734
   492128497,   -0.01611,    +0.00293,    +1.03125,   -0.01064,    -0.01277,    -0.01064,  -37.29727,   -59.74805,   -32.47734
   492139471,   -0.02148,    -0.00781,    +1.02930,   -0.01171,    -0.01383,    -0.01064,  -37.29727,   -59.74805,   -32.47734
   492150422,   -0.01221,    -0.01025,    +1.01855,   -0.01277,    -0.00958,    -0.00958,  -36.57305,   -61.19649,   -34.22344
   492161356,   -0.01855,    -0.02100,    +1.03711,   -0.01490,    -0.01171,    -0.01064,  -36.57305,   -61.19649,   -34.22344
   492172336,   -0.01416,    -0.01270,    +1.02588,   -0.01277,    -0.00745,    -0.01171,  -36.57305,   -61.19649,   -34.22344
   492183257,   -0.00977,    -0.01562,    +1.01318,   -0.01809,    -0.01596,    -0.01064,  -36.57305,   -61.19649,   -34.22344
   492194173,   -0.01660,    -0.01270,    +1.02686,   -0.01277,    -0.00639,    -0.01064,  -36.57305,   -61.19649,   -34.22344
   492205118,   -0.02344,    -0.01465,    +1.03662,   -0.01383,    -0.00639,    -0.00958,  -36.57305,   -61.19649,   -34.22344
   492216028,   -0.02051,    -0.01904,    +1.02197,   -0.01490,    -0.00851,    -0.01596,  -36.57305,   -61.19649,   -34.22344
   492226995,   -0.01660,    -0.00586,    +1.02051,   -0.01064,    -0.01383,    -0.01064,  -36.57305,   -61.19649,   -34.22344
   492237945,   -0.02148,    -0.01074,    +1.02441,   -0.01383,    -0.00851,    -0.00851,  -36.57305,   -61.19649,   -34.22344
   492248972,   -0.01904,    -0.00977,    +1.02246,   -0.01596,    -0.01064,    -0.00958,  -36.57305,   -61.19649,   -34.22344
   492259879,   -0.00830,    -0.01318,    +1.02783,   -0.01064,    -0.01064,    -0.00745,  -36.57305,   -61.19649,   -34.22344
   492270784,   -0.01709,    -0.01172,    +1.02246,   -0.01277,    -0.00745,    -0.00851,  -36.57305,   -61.19649,   -34.22344
   492281723,   -0.01367,    -0.01416,    +1.01758,   -0.00958,    -0.01277,    -0.01383,  -36.57305,   -61.19649,   -34.22344
   492292661,   -0.01660,    -0.01562,    +1.02930,   -0.01277,    -0.01171,    -0.01277,  -36.57305,   -61.19649,   -34.22344
   492303590,   -0.01562,    -0.00928,    +1.02588,   -0.01490,    -0.00958,    -0.01064,  -36.57305,   -61.19649,   -34.22344
   492314595,   -0.01172,    -0.01611,    +1.02148,   -0.01703,    -0.00532,    -0.01490,  -36.57305,   -61.19649,   -34.22344
   492325499,   -0.01562,    -0.01709,    +1.03223,   -0.01703,    -0.00851,    -0.01064,  -36.57305,   -61.19649,   -34.22344
   492336426,   -0.01807,    -0.00977,    +1.01855,   -0.01490,    -0.01383,    -0.00958,  -36.57305,   -61.19649,   -34.22344
   492347422,   -0.01367,    -0.01709,    +1.02979,   -0.01064,    -0.00958,    -0.01064,  -36.57305,   -61.19649,   -34.22344
   492358327,   -0.02588,    -0.01709,    +1.02051,   -0.01171,    -0.01277,    -0.01383,  -36.57305,   -61.19649,   -34.22344
   492369240,   -0.01855,    -0.01123,    +1.03174,   -0.01064,    -0.00639,    -0.01064,  -36.57305,   -61.19649,   -34.22344
   492380200,   -0.01514,    -0.01807,    +1.01855,   -0.01171,    -0.00958,    -0.00851,  -36.57305,   -61.19649,   -34.22344
   492391105,   -0.02002,    -0.02393,    +1.02930,   -0.01171,    -0.00745,    -0.01277,  -36.57305,   -61.19649,   -34.22344
   492402090,   -0.01562,    -0.01270,    +1.02588,   -0.01490,    -0.01064,    -0.01171,  -35.66777,   -59.92910,   -33.35039
   492413057,   -0.02295,    -0.01807,    +1.01953,   -0.01383,    -0.01490,    -0.01383,  -35.66777,   -59.92910,   -33.35039
   492423977,   -0.01660,    -0.01660,    +1.02881,   -0.01383,    -0.01171,    -0.01064,  -35.66777,   -59.92910,   -33.35039
   492434944,   -0.01562,    -0.02148,    +1.02734,   -0.01171,    -0.01277,    -0.00851,  -35.66777,   -59.92910,   -33.35039
   492445894,   -0.02734,    -0.01465,    +1.01807,   -0.01916,    -0.00851,    -0.01277,  -35.66777,   -59.92910,   -33.35039
   492456856,   -0.01904,    -0.01562,    +1.03076,   -0.01383,    -0.01596,    -0.01490,  -35.66777,   -59.92910,   -33.35039
   492467793,   -0.01709,    -0.01660,    +1.01758,   -0.01277,    -0.00851,    -0.00745,  -35.66777,   -59.92910,   -33.35039
   492478726,   -0.01562,    -0.01172,    +1.01855,   -0.01064,    -0.00958,    -0.00851,  -35.66777,   -59.92910,   -33.35039
   492489697,   -0.01514,    -0.01074,    +1.02881,   -0.01383,    -0.00958,    -0.01490,  -35.66777,   -59.92910,   -33.35039
   492500602,   -0.02393,    -0.01221,    +1.01318,   -0.01596,    -0.01171,    -0.01383,  -35.66777,   -59.92910,   -33.35039
   492511565,   -0.02441,    -0.00781,    +1.02393,   -0.01171,    -0.01277,    -0.00851,  -35.66777,   -59.92910,   -33.35039
   492522487,   -0.02539,    -0.01123,    +1.02832,   -0.01490,    -0.00851,    -0.01064,  -35.66777,   -59.92910,   -33.35039
   492533393,   -0.01709,    -0.01709,    +1.01660,   -0.00958,    -0.00958,    -0.01171,  -35.66777,   -59.92910,   -33.35039
   492544342,   -0.01025,    -0.01709,    +1.01807,   -0.01383,    -0.01064,    -0.01064,  -35.66777,   -59.92910,   -33.35039
   492555287,   -0.01123,    -0.00537,    +1.01953,   -0.01703,    -0.00745,    -0.01277,  -35.66777,   -59.92910,   -33.35039
   492566209,   -0.02002,    -0.02100,    +1.03027,   -0.01277,    -0.00851,    -0.01277,  -35.66777,   -59.92910,   -33.35039
   492577206,   -0.02002,    -0.01074,    +1.02930,   -0.01596,    -0.01064,    -0.00958,  -35.66777,   -59.92910,   -33.35039
   492588168,   -0.00928,    -0.01758,    +1.02588,   -0.01064,    -0.00745,    -0.00745,  -35.66777,   -59.92910,   -33.35039
   492599099,   -0.02197,    -0.02002,    +1.03125,   -0.01490,    -0.00745,    -0.00532,  -35.66777,   -59.92910,   -33.35039
   492610165,   -0.01172,    -0.02002,    +1.02539,   -0.01490,    -0.01277,    -0.01064,  -35.66777,   -59.92910,   -33.35039
   492621073,   -0.01904,    -0.01025,    +1.03613,   -0.01596,    -0.01383,    -0.01064,  -35.66777,   -59.92910,   -33.35039
   492632004,   -0.01465,    -0.02490,    +1.02393,   -0.01383,    -0.00958,    -0.01064,  -35.66777,   -59.92910,   -33.35039
   492642909,   -0.00391,    -0.00879,    +1.02539,   -0.01383,    -0.01277,    -0.00851,  -35.66777,   -59.92910,   -33.35039
   492653830,   -0.01172,    -0.01074,    +1.02637,   -0.00958,    -0.00851,    -0.01171,  -36.21094,   -59.74805,   -32.82656
   492664779,   -0.00977,    -0.01123,    +1.02930,   -0.01064,    -0.01171,    -0.01171,  -36.21094,   -59.74805,   -32.82656
   492675687,   -0.01514,    -0.01514,    +1.02441,   -0.01703,    -0.00851,    -0.00851,  -36.21094,   -59.74805,   -32.82656
   492686651,   -0.01660,    -0.01465,    +1.01855,   -0.01490,    -0.01277,    -0.01490,  -36.21094,   -59.74805,   -32.82656
   492697586,   -0.01562,    -0.01660,    +1.04102,   -0.01490,    -0.00851,    -0.01064,  -36.21094,   -59.74805,   -32.82656
   492708490,   -0.01514,    -0.01855,    +1.02441,   -0.01064,    -0.01277,    -0.01490,  -36.21094,   -59.74805,   -32.82656
   492719467,   -0.01709,    -0.02100,    +1.03125,   -0.01809,    -0.01171,    -0.01277,  -36.21094,   -59.74805,   -32.82656
   492730413,   -0.01562,    -0.01514,    +1.02246,   -0.01277,    -0.01171,    -0.01064,  -36.21094,   -59.74805,   -32.82656
   492741333,   -0.01562,    -0.01416,    +1.02539,   -0.00958,    -0.01277,    -0.01277,  -36.21094,   -59.74805,   -32.82656
   492752305,   -0.01367,    -0.02002,    +1.02832,   -0.01277,    -0.01277,    -0.01277,  -36.21094,   -59.74805,   -32.82656
   492763211,   -0.01807,    -0.01318,    +1.03174,   -0.01171,    -0.00745,    -0.01490,  -36.21094,   -59.74805,   -32.82656
   492774136,   -0.00977,    -0.02295,    +1.03516,   -0.01383,    -0.00745,    -0.00958,  -36.21094,   -59.74805,   -32.82656
   492785051,   -0.01465,    -0.01807,    +1.01660,   -0.01490,    -0.00851,    -0.01277,  -36.21094,   -59.74805,   -32.82656
   492795958,   -0.01514,    -0.01221,    +1.02441,   -0.01490,    -0.01171,    -0.01277,  -36.21094,   -59.74805,   -32.82656
   492806923,   -0.02246,    -0.01514,    +1.01660,   -0.01703,    -0.01383,    -0.01064,  -36.21094,   -59.74805,   -32.82656
   492817878,   -0.02148,    -0.01221,    +1.01709,   -0.01596,    -0.00958,    -0.01064,  -36.21094,   -59.74805,   -32.82656
   492828783,   -0.01904,    -0.01318,    +1.02930,   -0.01383,    -0.01064,    -0.01277,  -36.21094,   -59.74805,   -32.82656
   492839743,   -0.02246,    -0.01465,    +1.01172,   -0.01596,    -0.01171,    -0.00426,  -36.21094,   -59.74805,   -32.82656
   492850650,   -0.01807,    -0.00879,    +1.01904,   -0.01383,    -0.01064,    -0.01277,  -36.21094,   -59.74805,   -32.82656
   492861566,   -0.02002,    -0.00928,    +1.02686,   -0.01596,    -0.00532,    -0.01171,  -36.21094,   -59.74805,   -32.82656
   492872482,   -0.00879,    -0.01709,    +1.03320,   -0.01171,    -0.01064,    -0.01383,  -36.21094,   -59.74805,   -32.82656
   492883407,   -0.01123,    -0.02344,    +1.03320,   -0.01490,    -0.00958,    -0.01490,  -36.21094,   -59.74805,   -32.82656
   492894351,   -0.01172,    -0.01807,    +1.02100,   -0.01703,    -0.00851,    -0.01383,  -36.21094,   -59.74805,   -32.82656
   492905273,   -0.01562,    -0.01904,    +1.04004,   -0.01596,    -0.01064,    -0.01277,  -36.39199,   -59.92910,   -32.65195
   492916175,   -0.01660,    -0.01221,    +1.02539,   -0.01490,    -0.00851,    -0.00851,  -36.39199,   -59.92910,   -32.65195
   492927088,   -0.01611,    -0.01514,    +1.02051,   -0.02128,    -0.01277,    -0.01171,  -36.39199,   -59.92910,   -32.65195
   492938010,   -0.01855,    -0.01611,    +1.03760,   -0.01277,    -0.01596,    -0.00745,  -36.39199,   -59.92910,   -32.65195
   492948615,   -0.01318,    -0.02490,    +1.02246,   -0.01171,    -0.01277,    -0.00958,  -36.39199,   -59.92910,   -32.65195
   492959237,   -0.01416,    -0.00488,    +1.01807,   -0.01703,    -0.00745,    -0.00958,  -36.39199,   -59.92910,   -32.65195
   492969815,   -0.01660,    -0.01025,    +1.03613,   -0.01277,    -0.00639,    -0.01277,  -36.39199,   -59.92910,   -32.65195
   492980350,   -0.01562,    -0.01465,    +1.04834,   -0.01490,    -0.01064,    -0.01064,  -36.39199,   -59.92910,   -32.65195
   492990930,   -0.01807,    -0.02051,    +1.01904,   -0.01490,    -0.00532,    -0.01596,  -36.39199,   -59.92910,   -32.65195
   493001510,   -0.01123,    -0.02051,    +1.02881,   -0.01171,    -0.00745,    -0.01171,  -36.39199,   -59.92910,   -32.65195
   493012086,   -0.01514,    -0.01758,    +1.02197,   -0.01277,    -0.01064,    -0.01064,  -36.39199,   -59.92910,   -32.65195
   493022638,   -0.02197,    -0.01221,    +1.01611,   -0.01277,    -0.00745,    -0.00532,  -36.39199,   -59.92910,   -32.65195
   493033226,   -0.01758,    -0.00928,    +1.04053,   -0.01277,    -0.00851,    -0.01064,  -36.39199,   -59.92910,   -32.65195
   493043815,   -0.00928,    -0.01562,    +1.02295,   -0.01490,    -0.01064,    -0.00851,  -36.39199,   -59.92910,   -32.65195
   493054729,   -0.01562,    -0.02246,    +1.02588,   -0.01809,    -0.00745,    -0.01064,  -36.39199,   -59.92910,   -32.65195
   493065628,   -0.00293,    -0.02051,    +1.03223,   -0.01703,    -0.01171,    -0.00958,  -36.39199,   -59.92910,   -32.65195
   493076531,   -0.01660,    -0.01270,    +1.02734,   -0.01277,    -0.00851,    -0.01171,  -36.39199,   -59.92910,   -32.65195
   493087465,   -0.01855,    +0.00049,    +1.03027,   -0.01171,    -0.01383,    -0.01064,  -36.39199,   -59.92910,   -32.65195
   493098417,   -0.01074,    -0.02246,    +1.03271,   -0.01171,    -0.01064,    -0.01383,  -36.39199,   -59.92910,   -32.65195
   493109325,   -0.01807,    -0.01904,    +1.02832,   -0.01490,    -0.00213,    -0.01171,  -36.39199,   -59.92910,   -32.65195
   493120278,   -0.01367,    -0.01123,    +1.02539,   -0.01277,    -0.00745,    -0.01171,  -36.39199,   -59.92910,   -32.65195
   499151955,   -0.01855,    -0.01758,    +1.01855,   -0.00188,    -0.01064,    -0.00639,  -38.74570,   -59.74805,   -32.82656
   499162834,   -0.01660,    -0.00928,    +1.03174,   -0.00827,    -0.01064,    -0.00958,  -38.74570,   -59.74805,   -32.82656
   499173676,   -0.01660,    -0.00586,    +1.02930,   -0.00401,    -0.00745,    -0.00958,  -38.74570,   -59.74805,   -32.82656
   499184668,   -0.01074,    -0.00928,    +1.03711,   -0.00082,    -0.00958,    -0.01171,  -38.74570,   -59.74805,   -32.82656
   499195517,   -0.01514,    -0.00879,    +1.03662,   -0.00508,    -0.00745,    -0.00958,  -38.74570,   -59.74805,   -32.82656
   499206358,   -0.01709,    -0.00977,    +1.02881,   +0.00024,    -0.01277,    -0.00958,  -38.74570,   -59.74805,   -32.82656
   499217187,   -0.01709,    -0.01660,    +1.03271,   +0.00344,    -0.01064,    -0.01490,  -38.74570,   -59.74805,   -32.82656
   499228008,   -0.01855,    -0.00781,    +1.03076,   +0.00024,    -0.00958,    -0.01171,  -38.74570,   -59.74805,   -32.82656
   499238852,   -0.01562,    -0.01172,    +1.01904,   -0.00508,    -0.00958,    -0.01064,  -38.74570,   -59.74805,   -32.82656
   499249693,   -0.02148,    -0.01855,    +1.01270,   -0.00401,    -0.00851,    -0.01277,  -38.74570,   -59.74805,   -32.82656
   499260542,   -0.01416,    -0.00439,    +1.02734,   -0.00401,    -0.00745,    -0.01809,  -37.11621,   -59.92910,   -32.65195
   499271408,   -0.01611,    -0.01611,    +1.03320,   -0.00082,    -0.01277,    -0.00958,  -37.11621,   -59.92910,   -32.65195
   499282273,   -0.01709,    -0.01221,    +1.03516,   -0.00614,    -0.00958,    -0.00851,  -37.11621,   -59.92910,   -32.65195
   499293134,   -0.00928,    -0.01807,    +1.02148,   -0.00614,    -0.00958,    -0.01277,  -37.11621,   -59.92910,   -32.65195
   499303981,   -0.01123,    -0.01074,    +1.01025,   -0.00082,    -0.00532,    -0.01383,  -37.11621,   -59.92910,   -32.65195
   499314875,   -0.01660,    -0.00732,    +1.03027,   +0.00024,    -0.00639,    -0.00958,  -37.11621,   -59.92910,   -32.65195
   499325853,   -0.01172,    -0.01807,    +1.03076,   -0.00188,    -0.00851,    -0.01171,  -37.11621,   -59.92910,   -32.65195
   499336711,   -0.01416,    -0.02344,    +1.02295,   -0.00188,    -0.00958,    -0.01064,  -37.11621,   -59.92910,   -32.65195
   499347610,   -0.01367,    -0.01465,    +1.03906,   -0.00508,    -0.01171,    -0.01383,  -37.11621,   -59.92910,   -32.65195
   499358467,   -0.01318,    -0.01221,    +1.02002,   -0.00295,    -0.01277,    -0.00532,  -37.11621,   -59.92910,   -32.65195
   499369303,   -0.02197,    -0.01221,    +1.03320,   -0.00508,    -0.00958,    -0.01277,  -37.11621,   -59.92910,   -32.65195
   499380233,   -0.01807,    -0.02002,    +1.03906,   -0.00188,    -0.01171,    -0.00745,  -37.11621,   -59.92910,   -32.65195
   499391144,   -0.01465,    -0.00684,    +1.01465,   -0.00508,    -0.01383,    -0.01490,  -37.11621,   -59.92910,   -32.65195
   499402114,   -0.01514,    -0.00537,    +1.02588,   -0.00401,    -0.01171,    -0.00958,  -37.11621,   -59.92910,   -32.65195
   499413078,   -0.01611,    -0.01465,    +1.03320,   -0.00295,    -0.01064,    -0.00958,  -37.11621,   -59.92910,   -32.65195
   499424034,   -0.01562,    -0.02246,    +1.03467,   -0.00401,    -0.00851,    -0.00958,  -37.11621,   -59.92910,   -32.65195
   499434983,   -0.01807,    -0.01514,    +1.03320,   -0.00508,    -0.01277,    -0.01064,  -37.11621,   -59.92910,   -32.65195
   499445943,   -0.02734,    -0.00684,    +1.03125,   -0.00295,    -0.01383,    -0.00958,  -37.11621,   -59.92910,   -32.65195
   499456911,   -0.01709,    -0.01562,    +1.03906,   -0.00508,    -0.01277,    -0.00958,  -37.11621,   -59.92910,   -32.65195
   499467839,   -0.02148,    -0.01172,    +1.04053,   -0.00188,    -0.00851,    -0.00745,  -37.11621,   -59.92910,   -32.65195
   499478763,   -0.01025,    -0.01025,    +1.03662,   -0.00188,    -0.01596,    -0.00851,  -37.11621,   -59.92910,   -32.65195
   499489757,   -0.00635,    -0.00977,    +1.02588,   +0.00024,    -0.01277,    -0.00958,  -37.11621,   -59.92910,   -32.65195
   499500665,   -0.01465,    -0.01611,    +1.03076,   -0.00082,    -0.00639,    -0.01383,  -37.11621,   -59.92910,   -32.65195
   499511610,   -0.01904,    -0.01562,    +1.02539,   -0.00295,    -0.01383,    -0.01171,  -35.66777,   -61.01543,   -32.30273
   499522541,   -0.01855,    -0.02051,    +1.03027,   +0.00131,    -0.01277,    -0.01490,  -35.66777,   -61.01543,   -32.30273
   499533448,   -0.01367,    -0.01709,    +1.02295,   -0.00295,    -0.01277,    -0.00745,  -35.66777,   -61.01543,   -32.30273
   499544433,   -0.01611,    -0.01221,    +1.02393,   -0.00401,    -0.00958,    -0.01277,  -35.66777,   -61.01543,   -32.30273
   499555382,   -0.01660,    -0.00195,    +1.02637,   -0.00827,    -0.01171,    -0.01171,  -35.66777,   -61.01543,   -32.30273
   499566302,   -0.02881,    -0.01221,    +1.02295,   -0.00508,    -0.01064,    -0.01277,  -35.66777,   -61.01543,   -32.30273
   499577297,   -0.02148,    -0.01660,    +1.02686,   -0.00721,    -0.00851,    -0.01596,  -35.66777,   -61.01543,   -32.30273
   499588265,   -0.02490,    -0.00391,    +1.02002,   -0.00082,    -0.00851,    -0.00745,  -35.66777,   -61.01543,   -32.30273
   499599185,   -0.00830,    -0.01904,    +1.01172,   -0.00295,    -0.00532,    -0.01383,  -35.66777,   -61.01543,   -32.30273
   499610164,   -0.01416,    -0.01562,    +1.02979,   -0.00401,    -0.00745,    -0.00958,  -35.66777,   -61.01543,   -32.30273
   499621072,   -0.01514,    -0.00684,    +1.01465,   -0.00082,    -0.00532,    -0.01064,  -35.66777,   -61.01543,   -32.30273
   499631995,   -0.01514,    -0.01221,    +1.02588,   +0.00131,    -0.01171,    -0.01064,  -35.66777,   -61.01543,   -32.30273
   499642915,   -0.01660,    -0.00977,    +1.03320,   -0.00508,    -0.01171,    -0.01171,  -35.66777,   -61.01543,   -32.30273
   499653846,   -0.02295,    -0.00391,    +1.02100,   -0.00401,    -0.01064,    -0.00745,  -35.66777,   -61.01543,   -32.30273
   499664795,   -0.02100,    -0.01123,    +1.03174,   +0.00024,    -0.01171,    -0.00745,  -35.66777,   -61.01543,   -32.30273
   499675767,   -0.01367,    -0.01807,    +1.02686,   -0.00614,    -0.01064,    -0.01277,  -35.66777,   -61.01543,   -32.30273
   499686736,   -0.02393,    -0.01611,    +1.02295,   -0.00614,    -0.00745,    -0.01171,  -35.66777,   -61.01543,   -32.30273
   499697657,   -0.02148,    -0.01074,    +1.02783,   -0.00721,    -0.01064,    -0.00532,  -35.66777,   -61.01543,   -32.30273
   499708563,   -0.00244,    -0.02393,    +1.02393,   -0.00508,    -0.01596,    -0.01277,  -35.66777,   -61.01543,   -32.30273
   499719549,   -0.02295,    -0.01318,    +1.03027,   -0.00508,    -0.00639,    -0.01277,  -35.66777,   -61.01543,   -32.30273
   499730488,   -0.01807,    -0.01465,    +1.02393,   -0.00188,    -0.01064,    -0.00851,  -35.66777,   -61.01543,   -32.30273
   499741409,   -0.01904,    -0.02148,    +1.03369,   -0.00082,    -0.01277,    -0.00958,  -35.66777,   -61.01543,   -32.30273
   499752391,   -0.02002,    -0.00049,    +1.02783,   -0.00188,    -0.01064,    -0.01596,  -35.66777,   -61.01543,   -32.30273
   499763296,   -0.01807,    -0.01025,    +1.02588,   -0.00188,    -0.00745,    -0.00958,  -36.75410,   -59.56699,   -32.65195
   499774204,   -0.01074,    -0.00635,    +1.02783,   -0.00295,    -0.00958,    -0.00958,  -36.75410,   -59.56699,   -32.65195
   499785159,   -0.00586,    -0.02441,    +1.02637,   +0.00024,    -0.00745,    -0.00958,  -36.75410,   -59.56699,   -32.65195
   499796067,   -0.01758,    -0.01660,    +1.02832,   -0.00401,    -0.01277,    -0.01064,  -36.75410,   -59.56699,   -32.65195
   499807026,   -0.02344,    -0.01221,    +1.01855,   -0.00295,    -0.00532,    -0.01171,  -36.75410,   -59.56699,   -32.65195
   499817974,   -0.01514,    -0.02051,    +1.02588,   -0.00188,    -0.00851,    -0.00851,  -36.75410,   -59.56699,   -32.65195
   499828882,   -0.01611,    -0.01562,    +1.02881,   -0.00295,    -0.00745,    -0.01064,  -36.75410,   -59.56699,   -32.65195
   499839828,   -0.01514,    -0.02100,    +1.02490,   -0.00188,    -0.00958,    -0.01064,  -36.75410,   -59.56699,   -32.65195
   499850735,   -0.01709,    -0.00586,    +1.01953,   -0.00188,    -0.01277,    -0.00745,  -36.75410,   -59.56699,   -32.65195
   499861680,   -0.02246,    -0.00977,    +1.01807,   -0.00188,    -0.01064,    -0.00532,  -36.75410,   -59.56699,   -32.65195
   499872620,   -0.01318,    -0.00488,    +1.04639,   -0.00188,    -0.01277,    -0.01064,  -36.75410,   -59.56699,   -32.65195
   499883545,   -0.00732,    -0.01318,    +1.03174,   -0.00188,    -0.00745,    -0.00851,  -36.75410,   -59.56699,   -32.65195
   499894567,   -0.01123,    -0.00928,    +1.03369,   -0.00188,    -0.00851,    -0.01064,  -36.75410,   -59.56699,   -32.65195
   499905473,   -0.01758,    -0.01807,    +1.02051,   -0.00614,    -0.01171,    -0.01171,  -36.75410,   -59.56699,   -32.65195
   499916390,   -0.01660,    -0.01270,    +1.03027,   -0.00401,    -0.01171,    -0.01064,  -36.75410,   -59.56699,   -32.65195
   499927399,   -0.02051,    -0.01318,    +1.01855,   -0.00295,    -0.00639,    -0.01171,  -36.75410,   -59.56699,   -32.65195
   499938321,   -0.01855,    -0.01074,    +1.02686,   -0.00508,    -0.01171,    -0.01277,  -36.75410,   -59.56699,   -32.65195
   499949227,   -0.01416,    -0.01465,    +1.03516,   -0.00188,    -0.01064,    -0.00958,  -36.75410,   -59.56699,   -32.65195
   499960197,   -0.01660,    -0.01758,    +1.03467,   -0.00508,    -0.01171,    -0.01383,  -36.75410,   -59.56699,   -32.65195
   499971104,   -0.01709,    -0.01025,    +1.02783,   -0.00295,    -0.00851,    -0.01383,  -36.75410,   -59.56699,   -32.65195
   499982097,   -0.02002,    -0.01904,    +1.02637,   -0.00721,    -0.01171,    -0.01171,  -36.75410,   -59.56699,   -32.65195
   499993062,   -0.00195,    -0.01758,    +1.02490,   -0.00082,    -0.00851,    -0.00958,  -36.75410,   -59.56699,   -32.65195
   500004026,   -0.01416,    -0.01221,    +1.03271,   +0.00024,    -0.01171,    -0.01171,  -36.75410,   -59.56699,   -32.65195
   500014979,   -0.01416,    -0.01074,    +1.02979,   -0.00614,    -0.01277,    -0.00639,  -36.21094,   -59.38594,   -32.12812
   500025890,   -0.01221,    -0.02002,    +1.02832,   -0.00401,    -0.01490,    -0.01064,  -36.21094,   -59.38594,   -32.12812
   500036878,   -0.01807,    -0.01074,    +1.02979,   -0.00295,    -0.01064,    -0.01171,  -36.21094,   -59.38594,   -32.12812
   500047785,   -0.01758,    -0.01465,    +1.02393,   -0.00295,    -0.01171,    -0.01490,  -36.21094,   -59.38594,   -32.12812
   500058711,   -0.02002,    -0.01221,    +1.03613,   +0.00131,    -0.01064,    -0.00958,  -36.21094,   -59.38594,   -32.12812
   500069680,   -0.02051,    -0.01416,    +1.02832,   -0.00401,    -0.00851,    -0.00958,  -36.21094,   -59.38594,   -32.12812
   500080586,   -0.01807,    -0.01758,    +1.02832,   -0.00295,    -0.00851,    -0.01171,  -36.21094,   -59.38594,   -32.12812
   500091521,   -0.01221,    -0.02002,    +1.03223,   -0.00401,    -0.01277,    -0.00958,  -36.21094,   -59.38594,   -32.12812
   500102452,   -0.01514,    -0.01709,    +1.01953,   -0.00508,    -0.01064,    -0.00851,  -36.21094,   -59.38594,   -32.12812
   500113358,   -0.01318,    -0.00684,    +1.03271,   -0.01040,    -0.00745,    -0.01277,  -36.21094,   -59.38594,   -32.12812
   500124315,   -0.02441,    -0.01709,    +1.03174,   -0.00401,    -0.00745,    -0.01064,  -36.21094,   -59.38594,   -32.12812
   500135284,   -0.02051,    -0.02197,    +1.03174,   +0.00024,    -0.01277,    -0.01171,  -36.21094,   -59.38594,   -32.12812
   500146203,   -0.01367,    -0.01709,    +1.03369,   -0.00295,    -0.00745,    -0.00958,  -36.21094,   -59.38594,   -32.12812
   500157199,   -0.01221,    -0.01074,    +1.01074,   -0.00295,    -0.01064,    -0.01064,  -36.21094,   -59.38594,   -32.12812
   500168164,   -0.01758,    -0.01904,    +1.02588,   -0.00508,    -0.00958,    -0.01171,  -36.21094,   -59.38594,   -32.12812
   500179094,   -0.02002,    -0.01562,    +1.04736,   -0.00933,    -0.00958,    -0.01171,  -36.21094,   -59.38594,   -32.12812
   500190082,   -0.01807,    -0.01758,    +1.02295,   -0.00188,    -0.00639,    -0.01490,  -36.21094,   -59.38594,   -32.12812
   500200988,   -0.01416,    -0.01709,    +1.02100,   +0.00237,    -0.00958,    -0.01064,  -36.21094,   -59.38594,   -32.12812
   500211905,   -0.02197,    -0.01074,    +1.02881,   -0.00401,    -0.01171,    -0.01064,  -36.21094,   -59.38594,   -32.12812
   500222846,   -0.02246,    -0.00977,    +1.01953,   +0.00237,    -0.00745,    -0.01171,  -36.21094,   -59.38594,   -32.12812
   500233755,   -0.00977,    -0.00879,    +1.02002,   -0.00082,    -0.01064,    -0.00851,  -36.21094,   -59.38594,   -32.12812
   500244757,   -0.01123,    -0.02148,    +1.02588,   +0.00024,    -0.00958,    -0.01171,  -36.21094,   -59.38594,   -32.12812
   500255701,   -0.01416,    -0.01904,    +1.01660,   -0.00295,    -0.00958,    -0.00851,  -36.21094,   -59.38594,   -32.12812
   500266659,   -0.01221,    -0.01758,    +1.02783,   +0.00024,    -0.01277,    -0.01277,  -37.11621,   -61.01543,   -32.65195
   500277578,   -0.00684,    -0.02148,    +1.03125,   -0.00614,    -0.00851,    -0.01490,  -37.11621,   -61.01543,   -32.65195
   500288487,   -0.01758,    -0.01025,    +1.03369,   -0.00614,    -0.01277,    -0.01383,  -37.11621,   -61.01543,   -32.65195
   500299442,   -0.01074,    -0.01514,    +1.03369,   +0.00237,    -0.01383,    -0.01171,  -37.11621,   -61.01543,   -32.65195
   500310387,   -0.01904,    -0.01611,    +1.02734,   -0.00295,    -0.00851,    -0.01064,  -37.11621,   -61.01543,   -32.65195
   500321311,   -0.01611,    -0.01074,    +1.03320,   -0.00188,    -0.00958,    -0.01064,  -37.11621,   -61.01543,   -32.65195
   500332295,   -0.01221,    -0.00635,    +1.02490,   -0.00295,    -0.00958,    -0.01277,  -37.11621,   -61.01543,   -32.65195
   500343215,   -0.02002,    -0.00537,    +1.01074,   -0.00188,    -0.00639,    -0.01064,  -37.11621,   -61.01543,   -32.65195
   500354133,   -0.01709,    -0.01123,    +1.02734,   -0.00721,    -0.00532,    -0.01064,  -37.11621,   -61.01543,   -32.65195
   500365070,   -0.02246,    -0.02441,    +1.03271,   -0.00082,    -0.01064,    -0.01064,  -37.11621,   -61.01543,   -32.65195
   500375976,   -0.01758,    -0.01074,    +1.04004,   -0.00295,    -0.01064,    -0.00958,  -37.11621,   -61.01543,   -32.65195
   500386991,   -0.02100,    -0.01123,    +1.01660,   -0.00188,    -0.01383,    -0.01277,  -37.11621,   -61.01543,   -32.65195
   500397947,   -0.01074,    -0.02100,    +1.02441,   +0.00237,    -0.00851,    -0.01277,  -37.11621,   -61.01543,   -32.65195
   500408855,   -0.02148,    -0.01221,    +1.01758,   -0.00614,    -0.00958,    -0.00745,  -37.11621,   -61.01543,   -32.65195
   500419809,   -0.01611,    -0.01562,    +1.02051,   -0.00295,    -0.00851,    -0.00958,  -37.11621,   -61.01543,   -32.65195
   500430754,   -0.01367,    -0.01514,    +1.01758,   -0.00401,    -0.00851,    -0.01171,  -37.11621,   -61.01543,   -32.65195
   500441689,   -0.01465,    -0.01465,    +1.03662,   +0.00024,    -0.00851,    -0.01383,  -37.11621,   -61.01543,   -32.65195
   500452615,   -0.01660,    -0.01416,    +1.03760,   -0.00614,    -0.00851,    -0.01064,  -37.11621,   -61.01543,   -32.65195
   500463545,   -0.02148,    -0.01025,    +1.01562,   -0.00295,    -0.01064,    -0.01064,  -37.11621,   -61.01543,   -32.65195
   500474552,   -0.01709,    -0.02588,    +1.02490,   -0.00295,    -0.00851,    -0.01064,  -37.11621,   -61.01543,   -32.65195
   500485462,   -0.00586,    -0.01318,    +1.02051,   -0.00508,    -0.00639,    -0.01277,  -37.11621,   -61.01543,   -32.65195
   500496390,   -0.02051,    -0.01074,    +1.02637,   -0.00295,    -0.01277,    -0.00851,  -37.11621,   -61.01543,   -32.65195
   500507370,   -0.01367,    -0.01074,    +1.02441,   -0.00508,    -0.01383,    -0.01064,  -35.30566,   -60.65332,   -33.00117
   500518277,   -0.01367,    -0.01807,    +1.02246,   -0.00295,    -0.00851,    -0.01277,  -35.30566,   -60.65332,   -33.00117
   500529190,   -0.01611,    -0.01123,    +1.03271,   -0.00401,    -0.01064,    -0.01277,  -35.30566,   -60.65332,   -33.00117
   500540134,   -0.02051,    -0.01172,    +1.02100,   -0.00295,    -0.00532,    -0.01064,  -35.30566,   -60.65332,   -33.00117
   500551041,   -0.02002,    -0.01465,    +1.03174,   +0.00024,    -0.01383,    -0.00745,  -35.30566,   -60.65332,   -33.00117
   500562010,   -0.01855,    -0.00977,    +1.03027,   -0.00614,    -0.01383,    -0.01383,  -35.30566,   -60.65332,   -33.00117
   500572972,   -0.01172,    -0.01855,    +1.03174,   +0.00131,    -0.01171,    -0.00958,  -35.30566,   -60.65332,   -33.00117
   500583931,   -0.00977,    -0.01270,    +1.03809,   -0.00082,    -0.00639,    -0.01171,  -35.30566,   -60.65332,   -33.00117
   500594916,   -0.01904,    -0.01172,    +1.02637,   -0.00295,    -0.01171,    -0.01171,  -35.30566,   -60.65332,   -33.00117
   500605821,   -0.01660,    -0.00732,    +1.03174,   -0.00188,    -0.01277,    -0.00639,  -35.30566,   -60.65332,   -33.00117
   500616752,   -0.01025,    -0.01611,    +1.01514,   -0.00082,    -0.00745,    -0.01490,  -35.30566,   -60.65332,   -33.00117
   500627733,   -0.01221,    -0.01074,    +1.03271,   +0.00024,    -0.01277,    -0.01277,  -35.30566,   -60.65332,   -33.00117
   500638641,   -0.01855,    -0.00342,    +1.02588,   -0.00295,    -0.01383,    -0.01064,  -35.30566,   -60.65332,   -33.00117
   500649612,   -0.01855,    -0.01074,    +1.03369,   -0.00295,    -0.01064,    -0.00532,  -35.30566,   -60.65332,   -33.00117
   500660520,   -0.02051,    -0.01318,    +1.03125,   +0.00237,    -0.00745,    -0.00958,  -35.30566,   -60.65332,   -33.00117
   500671470,   -0.01514,    -0.01221,    +1.01904,   -0.00295,    -0.00851,    -0.01171,  -35.30566,   -60.65332,   -33.00117
   500682376,   -0.01660,    -0.01758,    +1.02930,   -0.00295,    -0.01064,    -0.00851,  -35.30566,   -60.65332,   -33.00117
   500693284,   -0.01611,    -0.01221,    +1.02783,   -0.00401,    -0.01277,    -0.00958,  -35.30566,   -60.65332,   -33.00117
   500704213,   -0.02100,    -0.01660,    +1.03271,   -0.00827,    -0.01064,    -0.01171,  -35.30566,   -60.65332,   -33.00117
   500715150,   -0.00977,    -0.00879,    +1.01807,   +0.00024,    -0.00745,    -0.00958,  -35.30566,   -60.65332,   -33.00117
   500726060,   -0.01904,    -0.00977,    +1.02490,   -0.00082,    -0.01490,    -0.01383,  -35.30566,   -60.65332,   -33.00117
   500737045,   -0.02197,    -0.02295,    +1.03125,   -0.00295,    -0.01171,    -0.01383,  -35.30566,   -60.65332,   -33.00117
   500747921,   -0.01123,    -0.01758,    +1.03027,   -0.00188,    -0.01171,    -0.00851,  -35.30566,   -60.65332,   -33.00117
   500758840,   -0.00879,    -0.00928,    +1.03174,   -0.00508,    -0.01064,    -0.01171,  -36.21094,   -60.11016,   -32.12812
   500769757,   -0.01416,    -0.02344,    +1.02539,   -0.00082,    -0.01171,    -0.00958,  -36.21094,   -60.11016,   -32.12812
   500780670,   -0.01611,    -0.00977,    +1.03369,   -0.00401,    -0.00532,    -0.01064,  -36.21094,   -60.11016,   -32.12812
   500791635,   -0.01611,    -0.01562,    +1.02002,   -0.00401,    -0.01171,    -0.01277,  -36.21094,   -60.11016,   -32.12812
   500802543,   -0.02100,    -0.02197,    +1.02441,   -0.00401,    -0.00958,    -0.00958,  -36.21094,   -60.11016,   -32.12812
   500813490,   -0.00684,    -0.01465,    +1.02881,   -0.00082,    -0.00958,    -0.01490,  -36.21094,   -60.11016,   -32.12812
   500824440,   -0.01562,    -0.01123,    +1.02930,   -0.00401,    -0.01171,    -0.01277,  -36.21094,   -60.11016,   -32.12812
   500835350,   -0.01367,    -0.01807,    +1.02881,   -0.00614,    -0.01064,    -0.01383,  -36.21094,   -60.11016,   -32.12812
   500846283,   -0.01221,    -0.01270,    +1.03516,   -0.00295,    -0.01064,    -0.01277,  -36.21094,   -60.11016,   -32.12812
   500857192,   -0.01855,    -0.01514,    +1.02588,   -0.00614,    -0.00851,    -0.01064,  -36.21094,   -60.11016,   -32.12812
   500868116,   -0.01074,    -0.01465,    +1.02783,   -0.00401,    -0.01171,    -0.01171,  -36.21094,   -60.11016,   -32.12812
   500879017,   -0.02539,    -0.01172,    +1.01758,   -0.00082,    -0.01383,    -0.01171,  -36.21094,   -60.11016,   -32.12812
   500889927,   -0.02148,    -0.01904,    +1.03564,   -0.00508,    -0.00639,    -0.01490,  -36.21094,   -60.11016,   -32.12812
   500900845,   -0.01025,    -0.01807,    +1.03662,   -0.00295,    -0.00851,    -0.01171,  -36.21094,   -60.11016,   -32.12812
   500911746,   -0.01074,    -0.01514,    +1.03516,   -0.00082,    -0.01064,    -0.01383,  -36.21094,   -60.11016,   -32.12812
   500922654,   -0.01758,    -0.01660,    +1.02686,   -0.00188,    -0.00851,    -0.01277,  -36.21094,   -60.11016,   -32.12812
   500933578,   -0.00391,    -0.02490,    +1.02979,   +0.00131,    -0.01383,    -0.01171,  -36.21094,   -60.11016,   -32.12812
   500944525,   -0.00928,    -0.01514,    +1.02832,   -0.00827,    -0.01064,    -0.01383,  -36.21094,   -60.11016,   -32.12812
   500955433,   -0.01465,    -0.00732,    +1.03662,   -0.00188,    -0.00745,    -0.01383,  -36.21094,   -60.11016,   -32.12812
   500966363,   -0.01758,    -0.01221,    +1.02490,   -0.00188,    -0.00639,    -0.01064,  -36.21094,   -60.11016,   -32.12812
   500977264,   -0.01660,    -0.01074,    +1.02002,   -0.00827,    -0.00958,    -0.00958,  -36.21094,   -60.11016,   -32.12812
   500988215,   -0.00977,    -0.01562,    +1.03271,   +0.00024,    -0.01064,    -0.01277,  -36.21094,   -60.11016,   -32.12812
   500999138,   -0.01123,    -0.01465,    +1.03027,   -0.00401,    -0.01171,    -0.00958,  -36.21094,   -60.11016,   -32.12812
   501010023,   -0.01758,    -0.01611,    +1.02002,   -0.00082,    -0.01596,    -0.01277,  -37.47832,   -59.92910,   -33.69961
   501020931,   -0.02246,    -0.01758,    +1.03174,   -0.00508,    -0.00958,    -0.01064,  -37.47832,   -59.92910,   -33.69961
   501031856,   -0.01807,    -0.01660,    +1.02881,   -0.00188,    -0.01064,    -0.01064,  -37.47832,   -59.92910,   -33.69961
   501042760,   -0.01611,    -0.00977,    +1.02148,   -0.00295,    -0.01383,    -0.01171,  -37.47832,   -59.92910,   -33.69961
   501053682,   -0.01562,    -0.01416,    +1.03320,   -0.00508,    -0.01064,    -0.01064,  -37.47832,   -59.92910,   -33.69961
   501064632,   -0.00732,    -0.01514,    +1.03369,   -0.00401,    -0.01490,    -0.00851,  -37.47832,   -59.92910,   -33.69961
   501075544,   -0.00879,    -0.02441,    +1.01855,   -0.00082,    -0.01277,    -0.01277,  -37.47832,   -59.92910,   -33.69961
   501086532,   -0.01514,    -0.00928,    +1.03223,   -0.00827,    -0.00745,    -0.00639,  -37.47832,   -59.92910,   -33.69961
   501097449,   -0.01221,    -0.01318,    +1.02588,   -0.00614,    -0.00958,    -0.00958,  -37.47832,   -59.92910,   -33.69961
   501108401,   -0.01416,    -0.01465,    +1.02637,   -0.00933,    -0.01171,    -0.01171,  -37.47832,   -59.92910,   -33.69961
   501119352,   -0.01758,    -0.00635,    +1.01904,   +0.00024,    -0.00958,    -0.00851,  -37.47832,   -59.92910,   -33.69961
   501130235,   -0.01758,    -0.02197,    +1.03955,   -0.00188,    -0.00958,    -0.00745,  -37.47832,   -59.92910,   -33.69961
   501141083,   -0.01514,    -0.01709,    +1.03174,   -0.00082,    -0.00745,    -0.01064,  -37.47832,   -59.92910,   -33.69961
   501151925,   -0.01025,    -0.00928,    +1.02979,   -0.00933,    -0.01383,    -0.00958,  -37.47832,   -59.92910,   -33.69961
   501162776,   -0.00977,    -0.00684,    +1.02539,   -0.00188,    -0.01277,    -0.01277,  -37.47832,   -59.92910,   -33.69961
   501173610,   -0.02246,    -0.01123,    +1.03711,   -0.00508,    -0.01064,    -0.00745,  -37.47832,   -59.92910,   -33.69961
   501184516,   -0.02002,    -0.01318,    +1.03174,   -0.00401,    -0.00745,    -0.01277,  -37.47832,   -59.92910,   -33.69961
   501195407,   -0.01855,    -0.01123,    +1.01904,   -0.00508,    -0.00532,    -0.01383,  -37.47832,   -59.92910,   -33.69961
   501206361,   -0.01514,    -0.01172,    +1.02246,   -0.00295,    -0.01171,    -0.00958,  -37.47832,   -59.92910,   -33.69961
   501217291,   -0.00928,    -0.01074,    +1.03174,   +0.00024,    -0.01171,    -0.01277,  -37.47832,   -59.92910,   -33.69961
   501228254,   -0.01660,    -0.01660,    +1.03076,   -0.00508,    -0.01171,    -0.01171,  -37.47832,   -59.92910,   -33.69961
   501239162,   -0.01465,    -0.01270,    +1.02881,   -0.00614,    -0.00639,    -0.01171,  -37.47832,   -59.92910,   -33.69961
   501250106,   -0.01758,    -0.01123,    +1.02930,   -0.00295,    -0.01383,    -0.01064,  -37.47832,   -59.92910,   -33.69961
   501261014,   -0.02100,    -0.01416,    +1.02832,   -0.00401,    -0.01064,    -0.01171,  -35.84883,   -60.11016,   -32.47734
   501271930,   -0.01367,    -0.01562,    +1.02490,   -0.00508,    -0.01277,    -0.00426,  -35.84883,   -60.11016,   -32.47734
   501282861,   -0.01123,    -0.00537,    +1.02686,   -0.00188,    -0.01383,    -0.01596,  -35.84883,   -60.11016,   -32.47734
   501293766,   -0.02441,    -0.01416,    +1.03857,   -0.00082,    -0.01383,    -0.01064,  -35.84883,   -60.11016,   -32.47734
   501304742,   -0.01416,    -0.00977,    +1.02588,   -0.00508,    -0.01171,    -0.01064,  -35.84883,   -60.11016,   -32.47734
   501315646,   -0.00928,    -0.01025,    +1.02246,   -0.00188,    -0.01064,    -0.01064,  -35.84883,   -60.11016,   -32.47734
   501326577,   -0.01416,    -0.00684,    +1.03174,   -0.00295,    -0.00851,    -0.00851,  -35.84883,   -60.11016,   -32.47734
   501337532,   -0.01611,    -0.01318,    +1.02246,   -0.00401,    -0.01064,    -0.00851,  -35.84883,   -60.11016,   -32.47734
   501348490,   -0.01221,    -0.01758,    +1.02783,   -0.00508,    -0.00851,    -0.01171,  -35.84883,   -60.11016,   -32.47734
   501359437,   -0.01172,    -0.02100,    +1.03076,   -0.00508,    -0.01277,    -0.01171,  -35.84883,   -60.11016,   -32.47734
   501370416,   -0.00928,    -0.01807,    +1.03760,   +0.00024,    -0.00958,    -0.00958,  -35.84883,   -60.11016,   -32.47734
   501381324,   -0.00391,    -0.01709,    +1.03369,   -0.00082,    -0.01171,    -0.00745,  -35.84883,   -60.11016,   -32.47734
   501392248,   -0.00439,    -0.02295,    +1.02637,   -0.00295,    -0.00532,    -0.01064,  -35.84883,   -60.11016,   -32.47734
   501403156,   -0.02197,    -0.01855,    +1.02100,   -0.00295,    -0.01171,    -0.00639,  -35.84883,   -60.11016,   -32.47734
   501414083,   -0.01416,    -0.01270,    +1.04053,   -0.00401,    -0.01383,    -0.01277,  -35.84883,   -60.11016,   -32.47734
   501425069,   -0.01025,    -0.01562,    +1.03809,   -0.00188,    -0.01064,    -0.01064,  -35.84883,   -60.11016,   -32.47734
   501435977,   -0.03076,    -0.01855,    +1.03076,   -0.00188,    -0.01277,    -0.01277,  -35.84883,   -60.11016,   -32.47734
   501446988,   -0.01855,    -0.01221,    +1.02783,   -0.00295,    -0.01064,    -0.01277,  -35.84883,   -60.11016,   -32.47734
   501457896,   -0.01318,    -0.02295,    +1.02393,   +0.00237,    -0.01277,    -0.00958,  -35.84883,   -60.11016,   -32.47734
   501468804,   -0.01758,    -0.00586,    +1.02490,   -0.00508,    -0.01171,    -0.00745,  -35.84883,   -60.11016,   -32.47734
   501479786,   -0.01807,    -0.02197,    +1.03711,   -0.00508,    -0.00745,    -0.00745,  -35.84883,   -60.11016,   -32.47734
   501490750,   -0.00928,    -0.00293,    +1.00977,   -0.00401,    -0.01596,    -0.01064,  -35.84883,   -60.11016,   -32.47734
   501501677,   -0.02051,    -0.01562,    +1.03320,   -0.00401,    -0.00532,    -0.01171,  -35.84883,   -60.11016,   -32.47734
   501512643,   -0.01758,    -0.01758,    +1.03564,   -0.00082,    -0.01064,    -0.01277,  -38.38359,   -59.02383,   -32.82656
   501523562,   -0.02295,    -0.01465,    +1.02295,   -0.00295,    -0.00851,    -0.01064,  -38.38359,   -59.02383,   -32.82656
   501534520,   -0.02002,    -0.01562,    +1.02686,   -0.00508,    -0.01277,    -0.00958,  -38.38359,   -59.02383,   -32.82656
   501545439,   -0.01562,    -0.01416,    +1.01465,   -0.00295,    -0.00851,    -0.00958,  -38.38359,   -59.02383,   -32.82656
   501556346,   -0.01123,    -0.00977,    +1.02100,   +0.00131,    -0.00958,    -0.01171,  -38.38359,   -59.02383,   -32.82656
   501567347,   -0.00781,    -0.00635,    +1.04248,   -0.00188,    -0.00851,    -0.00745,  -38.38359,   -59.02383,   -32.82656
   501578271,   -0.01465,    -0.01318,    +1.02002,   -0.00401,    -0.01277,    -0.00958,  -38.38359,   -59.02383,   -32.82656
   501589181,   -0.00684,    -0.01758,    +1.01660,   -0.00295,    -0.01171,    -0.00851,  -38.38359,   -59.02383,   -32.82656
   501600146,   -0.01709,    -0.01318,    +1.02197,   -0.00508,    -0.01171,    -0.01383,  -38.38359,   -59.02383,   -32.82656
   501611054,   -0.02539,    -0.00781,    +1.02637,   -0.00614,    -0.01064,    -0.00745,  -38.38359,   -59.02383,   -32.82656
   501622016,   -0.01709,    -0.00977,    +1.03564,   +0.00024,    -0.00851,    -0.01277,  -38.38359,   -59.02383,   -32.82656
   501632994,   -0.01709,    -0.01465,    +1.03760,   -0.00188,    -0.00745,    -0.00745,  -38.38359,   -59.02383,   -32.82656
   501643917,   -0.02197,    -0.00928,    +1.03223,   -0.00401,    -0.01383,    -0.00745,  -38.38359,   -59.02383,   -32.82656
   501654880,   -0.02197,    -0.01709,    +1.01855,   -0.00295,    -0.01064,    -0.00851,  -38.38359,   -59.02383,   -32.82656
   501665787,   -0.00977,    -0.01855,    +1.03760,   -0.00508,    -0.00958,    -0.00958,  -38.38359,   -59.02383,   -32.82656
   501676719,   -0.01562,    -0.00879,    +1.03857,   +0.00131,    -0.01383,    -0.01596,  -38.38359,   -59.02383,   -32.82656
   501687697,   -0.01562,    -0.01611,    +1.03271,   -0.00508,    -0.01490,    -0.00958,  -38.38359,   -59.02383,   -32.82656
   501698624,   -0.00977,    -0.01416,    +1.02197,   +0.00024,    -0.01064,    -0.00745,  -38.38359,   -59.02383,   -32.82656
   501709531,   -0.01807,    -0.01416,    +1.02441,   -0.00508,    -0.01383,    -0.01064,  -38.38359,   -59.02383,   -32.82656
   501720463,   -0.02100,    -0.02393,    +1.02148,   -0.00188,    -0.00639,    -0.00851,  -38.38359,   -59.02383,   -32.82656
   501731373,   -0.01465,    -0.01025,    +1.01514,   -0.00508,    -0.01064,    -0.01171,  -38.38359,   -59.02383,   -32.82656
   501742309,   -0.00830,    -0.01611,    +1.03027,   -0.00827,    -0.00851,    -0.01064,  -38.38359,   -59.02383,   -32.82656
   501753276,   -0.00977,    -0.00781,    +1.03369,   -0.00401,    -0.00851,    -0.01277,  -38.38359,   -59.02383,   -32.82656
   501764192,   -0.01416,    -0.02002,    +1.01855,   -0.00401,    -0.00639,    -0.01171,  -38.38359,   -59.02383,   -32.82656
   501775147,   -0.02100,    -0.01270,    +1.02930,   -0.00721,    -0.01064,    -0.00851,  -38.38359,   -59.02383,   -32.82656
   501786055,   -0.02002,    -0.01758,    +1.02148,   +0.00237,    -0.01064,    -0.01171,  -38.38359,   -59.02383,   -32.82656
   501797035,   -0.00342,    -0.01172,    +1.03955,   -0.00188,    -0.00851,    -0.00639,  -38.38359,   -59.02383,   -32.82656
   501808001,   -0.01611,    -0.01660,    +1.01855,   +0.00131,    -0.00639,    -0.01383,  -38.38359,   -59.02383,   -32.82656
   501818912,   -0.00195,    -0.01318,    +1.02051,   +0.00024,    -0.01064,    -0.01277,  -38.38359,   -59.02383,   -32.82656
   501829840,   -0.01758,    -0.00928,    +1.02002,   -0.00401,    -0.01277,    -0.00639,  -38.38359,   -59.02383,   -32.82656
   501840748,   -0.01758,    -0.01270,    +1.02197,   -0.00295,    -0.01064,    -0.01171,  -38.38359,   -59.02383,   -32.82656
   501851673,   -0.01562,    -0.01611,    +1.03271,   -0.00721,    -0.00639,    -0.00958,  -38.38359,   -59.02383,   -32.82656
   501862582,   -0.02002,    -0.01221,    +1.04395,   -0.00295,    -0.01171,    -0.01171,  -38.38359,   -59.02383,   -32.82656
   501873491,   -0.01855,    -0.01465,    +1.03271,   -0.00082,    -0.00958,    -0.01277,  -38.38359,   -59.02383,   -32.82656
   501884505,   -0.00684,    -0.01123,    +1.04639,   -0.00721,    -0.01171,    -0.01383,  -36.93516,   -60.11016,   -33.17578
   501895486,   -0.01074,    -0.01074,    +1.02686,   -0.00401,    -0.00639,    -0.01064,  -36.93516,   -60.11016,   -33.17578
   501906416,   -0.02051,    -0.01465,    +1.02002,   +0.00024,    -0.00851,    -0.01277,  -36.93516,   -60.11016,   -33.17578
   501917386,   -0.01367,    -0.01270,    +1.03076,   -0.00295,    -0.01064,    -0.01064,  -36.93516,   -60.11016,   -33.17578
   501928349,   -0.01367,    -0.00781,    +1.02148,   -0.00295,    -0.01277,    -0.01064,  -36.93516,   -60.11016,   -33.17578
   501939269,   -0.01758,    -0.01074,    +1.02100,   -0.00721,    -0.01277,    -0.00851,  -36.93516,   -60.11016,   -33.17578
   501950226,   -0.01172,    -0.01074,    +1.03076,   -0.00508,    -0.01064,    -0.01809,  -36.93516,   -60.11016,   -33.17578
   501961145,   -0.01611,    -0.01611,    +1.03027,   -0.00508,    -0.01171,    -0.01277,  -36.93516,   -60.11016,   -33.17578
   501972059,   -0.01367,    -0.01514,    +1.01855,   -0.00188,    -0.00851,    -0.01277,  -36.93516,   -60.11016,   -33.17578
   501982987,   -0.01807,    -0.00586,    +1.02393,   -0.00614,    -0.00851,    -0.01277,  -36.93516,   -60.11016,   -33.17578
   501993915,   -0.00391,    -0.01514,    +1.02100,   -0.00401,    -0.01064,    -0.01171,  -36.93516,   -60.11016,   -33.17578
   502004854,   -0.01465,    -0.01416,    +1.02393,   -0.00508,    -0.00851,    -0.01383,  -36.93516,   -60.11016,   -33.17578
   502015762,   -0.01562,    -0.01416,    +1.04980,   -0.00401,    -0.01277,    -0.00958,  -36.93516,   -60.11016,   -33.17578
   502026668,   -0.01660,    -0.01025,    +1.03320,   -0.00188,    -0.01064,    -0.01277,  -36.93516,   -60.11016,   -33.17578
   502037632,   -0.00879,    -0.01123,    +1.01367,   -0.00614,    -0.00851,    -0.01171,  -36.93516,   -60.11016,   -33.17578
   502048548,   -0.01611,    -0.01270,    +1.03564,   -0.00295,    -0.00851,    -0.00958,  -36.93516,   -60.11016,   -33.17578
   502059527,   -0.02686,    -0.01025,    +1.04639,   -0.00082,    -0.01064,    -0.00745,  -36.93516,   -60.11016,   -33.17578
   502070491,   -0.01074,    -0.01025,    +1.01953,   +0.00237,    -0.00851,    -0.00958,  -36.93516,   -60.11016,   -33.17578
   502081407,   -0.01514,    -0.01025,    +1.02930,   -0.00188,    -0.00851,    -0.00745,  -36.93516,   -60.11016,   -33.17578
   502092356,   -0.02246,    -0.01807,    +1.01514,   -0.00401,    -0.01171,    -0.00851,  -36.93516,   -60.11016,   -33.17578
   502103279,   -0.01514,    -0.00781,    +1.02686,   -0.00508,    -0.00958,    -0.01383,  -36.93516,   -60.11016,   -33.17578
   502114194,   -0.01514,    -0.01270,    +1.01855,   +0.00024,    -0.01383,    -0.00639,  -36.93516,   -60.11016,   -33.17578
   502125166,   -0.01025,    -0.02246,    +1.02881,   -0.00508,    -0.01171,    -0.01490,  -36.93516,   -60.11016,   -33.17578
   502136074,   -0.02734,    -0.00732,    +1.04443,   -0.00188,    -0.00958,    -0.01064,  -34.40039,   -59.02383,   -31.77891
   502147104,   -0.01514,    -0.00732,    +1.03027,   -0.00933,    -0.01064,    -0.01383,  -34.40039,   -59.02383,   -31.77891
   502158024,   -0.01562,    -0.01318,    +1.01807,   -0.00508,    -0.01171,    -0.00639,  -34.40039,   -59.02383,   -31.77891
   502168931,   -0.02734,    -0.01904,    +1.02783,   -0.00401,    -0.00851,    -0.01171,  -34.40039,   -59.02383,   -31.77891
   502179872,   -0.01807,    -0.02002,    +1.02490,   -0.00401,    -0.01277,    -0.01277,  -34.40039,   -59.02383,   -31.77891
   502190851,   -0.01221,    -0.01855,    +1.02490,   -0.00082,    -0.01277,    -0.01064,  -34.40039,   -59.02383,   -31.77891
   502201764,   -0.01025,    -0.01611,    +1.02783,   -0.00508,    -0.00745,    -0.01064,  -34.40039,   -59.02383,   -31.77891
   502212743,   -0.02295,    -0.01221,    +1.02295,   -0.00614,    -0.00639,    -0.01383,  -34.40039,   -59.02383,   -31.77891
   502223652,   -0.00830,    -0.00732,    +1.02832,   +0.00024,    -0.00958,    -0.00851,  -34.40039,   -59.02383,   -31.77891
   502234623,   -0.01367,    -0.02344,    +1.00586,   -0.00188,    -0.01277,    -0.00745,  -34.40039,   -59.02383,   -31.77891
   502245590,   -0.01514,    -0.01611,    +1.04395,   -0.00188,    -0.00851,    -0.01064,  -34.40039,   -59.02383,   -31.77891
   502256522,   -0.01660,    -0.00342,    +1.01758,   -0.00082,    -0.01277,    -0.01064,  -34.40039,   -59.02383,   -31.77891
   502267480,   -0.01562,    -0.02051,    +1.03809,   -0.00614,    -0.00958,    -0.01064,  -34.40039,   -59.02383,   -31.77891
   502278399,   -0.00098,    -0.00879,    +1.03174,   -0.00508,    -0.01383,    -0.01277,  -34.40039,   -59.02383,   -31.77891
   502289309,   -0.01172,    -0.02002,    +1.03076,   -0.00401,    -0.01064,    -0.00958,  -34.40039,   -59.02383,   -31.77891
   502300274,   -0.02197,    -0.00977,    +1.01611,   +0.00344,    -0.01064,    -0.00851,  -34.40039,   -59.02383,   -31.77891
   502311194,   -0.01074,    -0.02246,    +1.02637,   -0.00188,    -0.01490,    -0.00639,  -34.40039,   -59.02383,   -31.77891
   502322180,   -0.01221,    -0.00879,    +1.02197,   -0.00188,    -0.01171,    -0.01277,  -34.40039,   -59.02383,   -31.77891
   502333137,   -0.01758,    -0.01660,    +1.02881,   -0.00508,    -0.01383,    -0.01064,  -34.40039,   -59.02383,   -31.77891
   502344102,   -0.01025,    -0.01025,    +1.03467,   -0.00295,    -0.00851,    -0.00958,  -34.40039,   -59.02383,   -31.77891
   502355039,   -0.02100,    -0.00635,    +1.01562,   -0.00508,    -0.01490,    -0.00958,  -34.40039,   -59.02383,   -31.77891
   502365946,   -0.01416,    -0.01221,    +1.02002,   -0.00295,    -0.00745,    -0.01171,  -34.40039,   -59.02383,   -31.77891
   502376878,   -0.00830,    -0.01074,    +1.01562,   -0.00508,    -0.01596,    -0.00958,  -34.40039,   -59.02383,   -31.77891
   502387847,   -0.01514,    -0.01025,    +1.04395,   -0.00082,    -0.00851,    -0.01064,  -35.84883,   -60.11016,   -34.22344
   502398756,   -0.01758,    -0.01709,    +1.02832,   +0.00024,    -0.00426,    -0.00958,  -35.84883,   -60.11016,   -34.22344
   502409687,   -0.02246,    -0.01514,    +1.02051,   -0.00401,    -0.01171,    -0.01171,  -35.84883,   -60.11016,   -34.22344
   502420611,   -0.01709,    -0.01318,    +1.02783,   -0.00082,    -0.01171,    -0.00958,  -35.84883,   -60.11016,   -34.22344
   502431532,   -0.00732,    -0.00879,    +1.03564,   -0.00721,    -0.01171,    -0.00851,  -35.84883,   -60.11016,   -34.22344
   502442476,   -0.02344,    -0.01270,    +1.03369,   -0.00614,    -0.01490,    -0.00958,  -35.84883,   -60.11016,   -34.22344
   502453384,   -0.01025,    -0.01514,    +1.01758,   -0.00827,    -0.00532,    -0.00958,  -35.84883,   -60.11016,   -34.22344
   502464360,   -0.01025,    -0.01074,    +1.02393,   -0.00401,    -0.01171,    -0.01383,  -35.84883,   -60.11016,   -34.22344
   502475328,   -0.02490,    -0.01416,    +1.01025,   -0.00082,    -0.00958,    -0.00851,  -35.84883,   -60.11016,   -34.22344
   502486245,   -0.02002,    -0.01270,    +1.02393,   -0.00401,    -0.01277,    -0.00958,  -35.84883,   -60.11016,   -34.22344
   502497336,   -0.02148,    -0.01416,    +1.02686,   -0.00721,    -0.00851,    -0.00851,  -35.84883,   -60.11016,   -34.22344
   502508289,   -0.01709,    -0.01123,    +1.04150,   -0.00401,    -0.01383,    -0.00958,  -35.84883,   -60.11016,   -34.22344
   502519226,   -0.01465,    -0.01465,    +1.03076,   -0.00933,    -0.00532,    -0.01064,  -35.84883,   -60.11016,   -34.22344
   502530167,   -0.01465,    -0.01514,    +1.01855,   -0.00614,    -0.01277,    -0.01064,  -35.84883,   -60.11016,   -34.22344
   502541085,   -0.01465,    -0.00781,    +1.02002,   -0.00827,    -0.01171,    -0.01596,  -35.84883,   -60.11016,   -34.22344
   502552001,   -0.02490,    -0.00928,    +1.02588,   -0.00401,    -0.01383,    -0.01277,  -35.84883,   -60.11016,   -34.22344
   502562929,   -0.01562,    -0.01709,    +1.03223,   -0.00188,    -0.01171,    -0.01490,  -35.84883,   -60.11016,   -34.22344
   502573833,   -0.01514,    -0.01562,    +1.02393,   -0.00295,    -0.00958,    -0.01064,  -35.84883,   -60.11016,   -34.22344
   502584820,   -0.01709,    -0.01416,    +1.01855,   -0.00295,    -0.00851,    -0.00958,  -35.84883,   -60.11016,   -34.22344
   502595423,   -0.00684,    -0.01514,    +1.02246,   -0.00188,    -0.01064,    -0.01383,  -35.84883,   -60.11016,   -34.22344
   502606014,   -0.01074,    -0.00928,    +1.01367,   -0.00295,    -0.00851,    -0.00851,  -35.84883,   -60.11016,   -34.22344
   502616602,   -0.01465,    -0.01123,    +1.02295,   -0.00508,    -0.01171,    -0.00958,  -35.84883,   -60.11016,   -34.22344
   502627190,   -0.01855,    -0.01562,    +1.02197,   -0.00614,    -0.01171,    -0.00958,  -35.84883,   -60.11016,   -34.22344
   502637769,   -0.02441,    -0.01074,    +1.03027,   -0.00082,    -0.01064,    -0.00745,  -35.84883,   -60.11016,   -34.22344
   502648348,   -0.01855,    -0.02148,    +1.02686,   -0.00401,    -0.00958,    -0.01277,  -35.84883,   -60.11016,   -34.22344
   502658927,   -0.01416,    -0.01074,    +1.01953,   -0.00295,    -0.00958,    -0.00958,  -35.84883,   -60.11016,   -34.22344
   502669532,   -0.01465,    -0.00781,    +1.02588,   -0.00401,    -0.01490,    -0.00958,  -35.84883,   -60.11016,   -34.22344
   502680123,   -0.01855,    -0.00977,    +1.02100,   -0.00614,    -0.01064,    -0.01064,  -35.84883,   -60.11016,   -34.22344
   502690702,   -0.01855,    -0.01709,    +1.02930,   +0.00450,    -0.01277,    -0.00958,  -35.84883,   -60.11016,   -34.22344
   502701281,   -0.01514,    -0.01855,    +1.02783,   -0.00295,    -0.01171,    -0.01171,  -35.84883,   -60.11016,   -34.22344
   502711869,   -0.01709,    -0.00684,    +1.02734,   -0.00401,    -0.01064,    -0.01171,  -35.84883,   -60.11016,   -34.22344
   502722455,   -0.01660,    -0.00488,    +1.03027,   -0.00082,    -0.01383,    -0.00851,  -35.84883,   -60.11016,   -34.22344
   502733043,   -0.01367,    -0.01221,    +1.01709,   -0.00295,    -0.00745,    -0.01171,  -35.84883,   -60.11016,   -34.22344
   502743622,   -0.01660,    -0.01172,    +1.02246,   -0.00508,    -0.01277,    -0.00851,  -35.84883,   -60.11016,   -34.22344
   502754253,   -0.02246,    -0.01074,    +1.02393,   +0.00131,    -0.00639,    -0.01490,  -37.11621,   -61.37754,   -31.25508
   502764859,   -0.01904,    -0.01611,    +1.03076,   -0.00401,    -0.01171,    -0.00851,  -37.11621,   -61.37754,   -31.25508
   502775447,   -0.01514,    -0.01172,    +1.01807,   +0.00024,    -0.01277,    -0.01064,  -37.11621,   -61.37754,   -31.25508
   502786025,   -0.01855,    -0.01221,    +1.03125,   -0.00295,    -0.01277,    -0.01277,  -37.11621,   -61.37754,   -31.25508
   502796939,   -0.02393,    -0.01758,    +1.02393,   +0.00131,    -0.01171,    -0.01171,  -37.11621,   -61.37754,   -31.25508
   502807891,   -0.01465,    -0.00732,    +1.00586,   -0.00295,    -0.00958,    -0.01277,  -37.11621,   -61.37754,   -31.25508
   502818806,   -0.01807,    -0.01318,    +1.01074,   -0.00827,    -0.01596,    -0.01064,  -37.11621,   -61.37754,   -31.25508
   502829730,   -0.01611,    -0.00977,    +1.02637,   -0.00508,    -0.00426,    -0.01171,  -37.11621,   -61.37754,   -31.25508
   502840657,   -0.01318,    -0.01074,    +1.02686,   -0.00295,    -0.01277,    -0.00851,  -37.11621,   -61.37754,   -31.25508
   502851642,   -0.01709,    -0.01709,    +1.01611,   -0.00401,    -0.00319,    -0.00851,  -37.11621,   -61.37754,   -31.25508
   502862563,   -0.01465,    -0.00928,    +1.03027,   -0.00188,    -0.00639,    -0.01383,  -37.11621,   -61.37754,   -31.25508
   502873472,   -0.01709,    -0.01416,    +1.02588,   -0.00082,    -0.01171,    -0.00639,  -37.11621,   -61.37754,   -31.25508
   502884473,   -0.02246,    -0.00732,    +1.04150,   -0.00082,    -0.01064,    -0.01490,  -37.11621,   -61.37754,   -31.25508
   502895444,   -0.01807,    -0.01416,    +1.02051,   -0.00082,    -0.00958,    -0.00745,  -37.11621,   -61.37754,   -31.25508
   502906356,   -0.02051,    -0.01660,    +1.02734,   -0.00082,    -0.00851,    -0.00958,  -37.11621,   -61.37754,   -31.25508
   502917355,   -0.01562,    -0.01514,    +1.02686,   -0.00721,    -0.00958,    -0.01277,  -37.11621,   -61.37754,   -31.25508
   502928321,   -0.00977,    -0.00928,    +1.03613,   -0.00508,    -0.01064,    -0.00851,  -37.11621,   -61.37754,   -31.25508
   502939244,   -0.01709,    -0.01270,    +1.02246,   -0.00401,    -0.01277,    -0.01596,  -37.11621,   -61.37754,   -31.25508
   502950201,   -0.01172,    -0.01807,    +1.02051,   -0.00614,    -0.00745,    -0.01171,  -37.11621,   -61.37754,   -31.25508
   502961130,   -0.01025,    -0.01562,    +1.01709,   -0.00401,    -0.00958,    -0.00958,  -37.11621,   -61.37754,   -31.25508
   502972042,   -0.01807,    -0.01025,    +1.03125,   -0.00508,    -0.00639,    -0.01277,  -37.11621,   -61.37754,   -31.25508
   502982979,   -0.02051,    -0.00439,    +1.02246,   -0.00721,    -0.01064,    -0.01064,  -37.11621,   -61.37754,   -31.25508
   502993917,   -0.00879,    -0.00537,    +1.01953,   -0.00295,    -0.00958,    -0.00851,  -37.11621,   -61.37754,   -31.25508
   503004855,   -0.01611,    -0.01562,    +1.02637,   -0.00295,    -0.01064,    -0.01277,  -36.39199,   -59.92910,   -33.35039
   503015762,   -0.02051,    -0.02002,    +1.03223,   -0.00295,    -0.01064,    -0.01171,  -36.39199,   -59.92910,   -33.35039
   503026666,   -0.02441,    -0.00928,    +1.02686,   -0.00188,    -0.01171,    -0.01171,  -36.39199,   -59.92910,   -33.35039
   503037633,   -0.01904,    -0.00928,    +1.02100,   -0.00401,    -0.01383,    -0.01277,  -36.39199,   -59.92910,   -33.35039
   503048548,   -0.01025,    -0.00977,    +1.02441,   +0.00024,    -0.00745,    -0.01490,  -36.39199,   -59.92910,   -33.35039
   503059527,   -0.01904,    -0.01172,    +1.02295,   -0.00401,    -0.01383,    -0.01383,  -36.39199,   -59.92910,   -33.35039
   503070495,   -0.01514,    -0.01123,    +1.02588,   -0.00188,    -0.01383,    -0.00745,  -36.39199,   -59.92910,   -33.35039
   503081408,   -0.01367,    -0.01025,    +1.02783,   -0.00614,    -0.00426,    -0.00851,  -36.39199,   -59.92910,   -33.35039
   503092359,   -0.00635,    -0.01221,    +1.02441,   +0.00131,    -0.01490,    -0.00958,  -36.39199,   -59.92910,   -33.35039
   503103297,   -0.01660,    -0.02002,    +1.02148,   -0.00614,    -0.00851,    -0.00958,  -36.39199,   -59.92910,   -33.35039
   503114212,   -0.01367,    -0.01270,    +1.04102,   -0.00295,    -0.01171,    -0.00851,  -36.39199,   -59.92910,   -33.35039
   503125179,   -0.01465,    -0.01807,    +1.02881,   -0.00614,    -0.01277,    -0.00958,  -36.39199,   -59.92910,   -33.35039
   503136087,   -0.01611,    -0.01123,    +1.02539,   -0.00508,    -0.00958,    -0.01171,  -36.39199,   -59.92910,   -33.35039
   503147072,   -0.01367,    -0.01709,    +1.02832,   -0.00082,    -0.01064,    -0.01171,  -36.39199,   -59.92910,   -33.35039
   503157998,   -0.01172,    -0.01025,    +1.02832,   +0.00024,    -0.01064,    -0.00851,  -36.39199,   -59.92910,   -33.35039
   503168904,   -0.00293,    -0.01318,    +1.02734,   -0.00721,    -0.00745,    -0.01171,  -36.39199,   -59.92910,   -33.35039
   503179858,   -0.01367,    -0.01807,    +1.02979,   -0.00614,    -0.00851,    -0.00958,  -36.39199,   -59.92910,   -33.35039
   503190834,   -0.02002,    -0.02197,    +1.02002,   -0.00508,    -0.01064,    -0.01064,  -36.39199,   -59.92910,   -33.35039
   503201798,   -0.01514,    -0.02197,    +1.02783,   -0.00401,    -0.00958,    -0.01171,  -36.39199,   -59.92910,   -33.35039
   503212785,   -0.01660,    -0.01514,    +1.02686,   -0.00721,    -0.00851,    -0.01171,  -36.39199,   -59.92910,   -33.35039
   503223692,   -0.01123,    -0.01562,    +1.03613,   +0.00131,    -0.01383,    -0.01171,  -36.39199,   -59.92910,   -33.35039
   503234644,   -0.01709,    -0.00439,    +1.02686,   -0.00614,    -0.01064,    -0.01171,  -36.39199,   -59.92910,   -33.35039
   503245619,   -0.02002,    -0.01074,    +1.02539,   -0.00188,    -0.00745,    -0.00851,  -36.39199,   -59.92910,   -33.35039
   503256574,   -0.02148,    -0.01416,    +1.02197,   -0.00295,    -0.00851,    -0.01383,  -36.21094,   -59.74805,   -32.47734
   503267543,   -0.02051,    -0.01416,    +1.02197,   -0.00401,    -0.01490,    -0.01171,  -36.21094,   -59.74805,   -32.47734
   503278451,   -0.02100,    -0.01270,    +1.03174,   +0.00024,    -0.01277,    -0.01383,  -36.21094,   -59.74805,   -32.47734
   503289360,   -0.01904,    -0.00879,    +1.02539,   -0.00401,    -0.01064,    -0.01277,  -36.21094,   -59.74805,   -32.47734
   503300305,   -0.01172,    -0.01514,    +1.02783,   -0.00082,    -0.00958,    -0.00851,  -36.21094,   -59.74805,   -32.47734
   503311227,   -0.02734,    -0.00732,    +1.03174,   +0.00131,    -0.00745,    -0.01383,  -36.21094,   -59.74805,   -32.47734
   503322198,   -0.01416,    -0.01465,    +1.03174,   -0.00188,    -0.00745,    -0.01171,  -36.21094,   -59.74805,   -32.47734
   503333153,   -0.01074,    -0.00928,    +1.02197,   -0.00508,    -0.00639,    -0.01064,  -36.21094,   -59.74805,   -32.47734
   503344107,   -0.00977,    -0.01611,    +1.02100,   -0.00401,    -0.01064,    -0.01383,  -36.21094,   -59.74805,   -32.47734
   503355050,   -0.02100,    -0.01611,    +1.03369,   -0.00614,    -0.01383,    -0.00958,  -36.21094,   -59.74805,   -32.47734
   503365958,   -0.00879,    -0.00684,    +1.03711,   -0.00082,    -0.00745,    -0.00639,  -36.21094,   -59.74805,   -32.47734
   503376885,   -0.00684,    -0.01514,    +1.03809,   -0.00508,    -0.01383,    -0.01383,  -36.21094,   -59.74805,   -32.47734
   503387866,   -0.02051,    -0.00732,    +1.01855,   -0.00188,    -0.01064,    -0.01277,  -36.21094,   -59.74805,   -32.47734
   503398773,   -0.02734,    -0.01904,    +1.03076,   -0.00188,    -0.00639,    -0.01171,  -36.21094,   -59.74805,   -32.47734
   503409715,   -0.01416,    -0.01025,    +1.03613,   -0.00295,    -0.00958,    -0.01596,  -36.21094,   -59.74805,   -32.47734
   503420640,   -0.01807,    -0.01807,    +1.01660,   -0.00508,    -0.00851,    -0.01064,  -36.21094,   -59.74805,   -32.47734
   503431563,   -0.00439,    -0.01514,    +1.02246,   +0.00131,    -0.01064,    -0.00958,  -36.21094,   -59.74805,   -32.47734
   503442517,   -0.01025,    -0.01660,    +1.01953,   -0.00295,    -0.00958,    -0.00851,  -36.21094,   -59.74805,   -32.47734
   503453423,   -0.01904,    -0.01465,    +1.03711,   -0.00082,    -0.00958,    -0.01064,  -36.21094,   -59.74805,   -32.47734
   503464411,   -0.02295,    -0.01465,    +1.02979,   -0.00188,    -0.00745,    -0.01383,  -36.21094,   -59.74805,   -32.47734
   503475364,   -0.01416,    -0.02148,    +1.03174,   -0.00508,    -0.00319,    -0.01064,  -36.21094,   -59.74805,   -32.47734
   503486284,   -0.01758,    -0.01855,    +1.01855,   -0.00082,    -0.01277,    -0.01383,  -36.21094,   -59.74805,   -32.47734
   503497273,   -0.01367,    -0.01807,    +1.02295,   +0.00024,    -0.00958,    -0.01383,  -36.21094,   -59.74805,   -32.47734
   503508209,   -0.01123,    -0.01660,    +1.02637,   +0.00024,    -0.00745,    -0.01064,  -35.30566,   -60.29121,   -33.00117
   503519142,   -0.01660,    -0.01514,    +1.02246,   -0.00295,    -0.00851,    -0.01171,  -35.30566,   -60.29121,   -33.00117
   503530078,   -0.01611,    -0.01807,    +1.03369,   +0.00024,    -0.00958,    -0.01383,  -35.30566,   -60.29121,   -33.00117
   503541004,   -0.01904,    -0.01270,    +1.03662,   -0.00188,    -0.01171,    -0.01064,  -35.30566,   -60.29121,   -33.00117
   503551973,   -0.01660,    -0.01172,    +1.03174,   -0.00614,    -0.00745,    -0.01277,  -35.30566,   -60.29121,   -33.00117
   503562893,   -0.01562,    -0.01416,    +1.02002,   -0.00082,    -0.00319,    -0.00532,  -35.30566,   -60.29121,   -33.00117
   503573802,   -0.01465,    -0.02148,    +1.02441,   -0.00614,    -0.00745,    -0.00851,  -35.30566,   -60.29121,   -33.00117
   503584756,   -0.00928,    -0.00732,    +1.02783,   -0.00721,    -0.01171,    -0.01383,  -35.30566,   -60.29121,   -33.00117
   503595662,   -0.02051,    -0.02051,    +1.02783,   -0.00508,    -0.00745,    -0.01277,  -35.30566,   -60.29121,   -33.00117
   503606593,   -0.01172,    -0.01709,    +1.04053,   -0.00614,    -0.01703,    -0.01277,  -35.30566,   -60.29121,   -33.00117
   503617526,   -0.01514,    -0.01562,    +1.02100,   -0.00614,    -0.00745,    -0.01277,  -35.30566,   -60.29121,   -33.00117
   503628482,   -0.00928,    -0.01318,    +1.03174,   -0.00614,    -0.01277,    -0.00958,  -35.30566,   -60.29121,   -33.00117
   503639418,   -0.00732,    -0.01465,    +1.03516,   -0.00401,    -0.01171,    -0.01064,  -35.30566,   -60.29121,   -33.00117
   503650373,   -0.01855,    -0.01416,    +1.02930,   -0.00188,    -0.01171,    -0.00745,  -35.30566,   -60.29121,   -33.00117
   503661293,   -0.01611,    -0.01025,    +1.02734,   -0.00508,    -0.00851,    -0.01596,  -35.30566,   -60.29121,   -33.00117
   503672231,   -0.02148,    -0.00635,    +1.02295,   +0.00024,    -0.00958,    -0.00958,  -35.30566,   -60.29121,   -33.00117
   503683157,   -0.01025,    -0.02148,    +1.02490,   -0.00401,    -0.01383,    -0.01277,  -35.30566,   -60.29121,   -33.00117
   503694079,   -0.01318,    -0.01318,    +1.02539,   -0.00721,    -0.00745,    -0.00851,  -35.30566,   -60.29121,   -33.00117
   503705049,   -0.01221,    -0.00635,    +1.01953,   -0.00295,    -0.01171,    -0.00958,  -35.30566,   -60.29121,   -33.00117
   503715955,   -0.00439,    -0.01514,    +1.02686,   -0.00082,    -0.01171,    -0.00958,  -35.30566,   -60.29121,   -33.00117
   503726940,   -0.01807,    -0.01270,    +1.03027,   -0.00508,    -0.00851,    -0.01064,  -35.30566,   -60.29121,   -33.00117
   503737899,   -0.01660,    -0.01514,    +1.01514,   -0.00082,    -0.01064,    -0.01171,  -35.30566,   -60.29121,   -33.00117
   503748804,   -0.01318,    -0.01123,    +1.04102,   -0.00401,    -0.00745,    -0.01064,  -35.30566,   -60.29121,   -33.00117
   503759780,   -0.01416,    -0.01660,    +1.01855,   +0.00024,    -0.01064,    -0.01064,  -36.57305,   -60.47227,   -32.82656
   503770731,   -0.02588,    -0.01025,    +1.01611,   +0.00131,    -0.00851,    -0.01277,  -36.57305,   -60.47227,   -32.82656
   503781653,   -0.01074,    -0.01611,    +1.02197,   +0.00024,    -0.01277,    -0.00958,  -36.57305,   -60.47227,   -32.82656
   503792593,   -0.01416,    -0.01123,    +1.01709,   -0.00508,    -0.01490,    -0.01596,  -36.57305,   -60.47227,   -32.82656
   503803521,   -0.00732,    -0.00977,    +1.04150,   +0.00024,    -0.01171,    -0.00851,  -36.57305,   -60.47227,   -32.82656
   503814486,   -0.02490,    -0.01172,    +1.02295,   +0.00131,    -0.00745,    -0.00745,  -36.57305,   -60.47227,   -32.82656
   503825392,   -0.01611,    -0.02148,    +1.02490,   -0.00508,    -0.01383,    -0.01064,  -36.57305,   -60.47227,   -32.82656
   503836301,   -0.02344,    -0.01904,    +1.02734,   -0.00401,    -0.00958,    -0.01490,  -36.57305,   -60.47227,   -32.82656
   503847224,   -0.01172,    -0.01123,    +1.02686,   -0.00295,    -0.01064,    -0.01277,  -36.57305,   -60.47227,   -32.82656
   503858132,   -0.00879,    -0.00781,    +1.02490,   -0.00508,    -0.01383,    -0.00958,  -36.57305,   -60.47227,   -32.82656
   503869038,   -0.01025,    -0.01221,    +1.03369,   -0.00295,    -0.00958,    -0.01064,  -36.57305,   -60.47227,   -32.82656
   503879991,   -0.01562,    -0.00537,    +1.03809,   -0.00508,    -0.01277,    -0.00958,  -36.57305,   -60.47227,   -32.82656
   503890956,   -0.00781,    -0.01611,    +1.03125,   -0.00508,    -0.00745,    -0.01064,  -36.57305,   -60.47227,   -32.82656
   503901951,   -0.00488,    -0.01123,    +1.02588,   -0.00188,    -0.01171,    -0.01064,  -36.57305,   -60.47227,   -32.82656
   503912916,   -0.01025,    -0.02100,    +1.02930,   -0.00188,    -0.00851,    -0.01064,  -36.57305,   -60.47227,   -32.82656
   503923831,   -0.00830,    -0.01270,    +1.03223,   -0.00188,    -0.00851,    -0.01383,  -36.57305,   -60.47227,   -32.82656
   503934879,   -0.01123,    -0.01221,    +1.03613,   -0.00295,    -0.01277,    -0.01064,  -36.57305,   -60.47227,   -32.82656
   503945785,   -0.02734,    -0.01074,    +1.02832,   -0.00721,    -0.00639,    -0.00745,  -36.57305,   -60.47227,   -32.82656
   503956721,   -0.00098,    -0.01904,    +1.03223,   -0.00508,    -0.01064,    -0.01277,  -36.57305,   -60.47227,   -32.82656
   503967696,   -0.02051,    -0.01758,    +1.02979,   -0.00401,    -0.00958,    -0.00958,  -36.57305,   -60.47227,   -32.82656
   503978619,   -0.01367,    -0.02051,    +1.02588,   +0.00024,    -0.01277,    -0.01064,  -36.57305,   -60.47227,   -32.82656
   503989527,   -0.01904,    -0.01416,    +1.02686,   -0.00401,    -0.01277,    -0.01064,  -36.57305,   -60.47227,   -32.82656
