time, ax, ay, az, gx, gy, gz, mx, my, mz
   675871918,   +0.00293,    -0.00878,    +0.99479,   +0.11484,    +0.07453,    -0.00122,  -15.66000,   -55.04200,    +0.52200
   675883204,   +0.00146,    -0.00732,    +0.99406,   +0.11240,    +0.07941,    +0.00000,  -15.54400,   -55.39000,    +0.69600
   675894492,   +0.00000,    -0.00659,    +1.00138,   +0.10996,    +0.07819,    +0.00122,  -15.25400,   -55.15800,    +0.87000
   675905746,   +0.00073,    -0.00366,    +0.99406,   +0.11851,    +0.07697,    +0.00244,  -15.19600,   -54.98400,    +0.75400
   675917001,   +0.00000,    -0.01098,    +0.98527,   +0.11362,    +0.08063,    +0.00122,  -16.06600,   -55.15800,    -0.58000
   675928254,   +0.00220,    -0.01903,    +1.00430,   +0.10873,    +0.08063,    -0.00122,  -15.42800,   -55.15800,    +0.23200
   675939505,   +0.00366,    -0.00512,    +0.99040,   +0.10629,    +0.07941,    -0.00611,  -15.42800,   -55.04200,    +0.23200
   675950758,   -0.00439,    -0.01318,    +0.99918,   +0.11606,    +0.07453,    +0.00489,  -15.66000,   -54.81000,    +0.23200
   675962010,   -0.00293,    -0.00659,    +0.99845,   +0.11606,    +0.07453,    +0.00122,  -15.37000,   -54.86800,    +0.81200
   675973262,   -0.00366,    -0.00952,    +0.98893,   +0.11240,    +0.07575,    -0.00244,  -15.42800,   -55.04200,    +0.69600
   675984505,   +0.00220,    -0.00732,    +0.98015,   +0.11118,    +0.07819,    +0.00000,  -15.66000,   -55.04200,    +1.45000
   675995754,   -0.00659,    -0.01171,    +0.99479,   +0.11240,    +0.07330,    +0.00122,  -15.77600,   -54.86800,    +0.75400
   676007004,   -0.00732,    -0.00732,    +0.99332,   +0.12095,    +0.07941,    -0.00122,  -15.13800,   -54.63600,    -0.00000
   676018249,   +0.00146,    -0.00805,    +0.99918,   +0.11851,    +0.07453,    +0.00244,  -15.60200,   -54.52000,    +0.98600
   676029498,   +0.00000,    -0.01464,    +0.99772,   +0.11240,    +0.07453,    +0.00489,  -15.60200,   -54.52000,    +0.98600
   676040745,   -0.00586,    -0.01537,    +0.98674,   +0.11240,    +0.07819,    +0.00244,  -15.71800,   -54.17200,    +0.34800
   676051999,   +0.00000,    -0.00512,    +0.99552,   +0.10751,    +0.07575,    +0.31154,  -15.48600,   -55.15800,    +0.92800
   676063245,   -0.00293,    -0.01025,    +0.99625,   +0.11362,    +0.07453,    -0.00122,  -15.83400,   -55.04200,    +1.04400
   676074513,   -0.00659,    -0.01391,    +0.99698,   +0.10996,    +0.07575,    +0.00244,  -15.54400,   -55.04200,    +0.92800
   676085760,   +0.18446,    -0.01464,    +0.99113,   +0.10996,    +0.07086,    +0.00000,  -15.66000,   -54.75200,    +1.27600
   676097010,   -0.00732,    -0.00586,    +0.99186,   +0.11973,    +0.07453,    +0.00244,  -15.77600,   -54.81000,    +0.29000
   676108261,   +0.00073,    -0.00878,    +0.99406,   +0.11484,    +0.07697,    +0.00122,  -15.60200,   -54.46200,    +1.27600
   676119511,   +0.00220,    -0.00805,    +0.99698,   +0.11118,    +0.07697,    -0.00367,  -15.60200,   -54.46200,    +1.27600
   676130759,   +0.00220,    -0.01098,    +0.98966,   +0.10629,    +0.07697,    +0.00122,  -16.18200,   -54.52000,    +0.81200
   676142012,   -0.00146,    -0.01171,    +0.99845,   +0.11484,    +0.07941,    +0.00122,  -15.71800,   -54.86800,    +0.29000
   676153262,   -0.00366,    -0.00439,    +0.98893,   +0.10507,    +0.07330,    +0.00367,  -16.18200,   -54.57800,    +0.23200
   676164507,   -0.00293,    -0.01025,    +0.99406,   +0.11240,    +0.08063,    +0.00367,  -15.31200,   -55.10000,    +1.39200
   676175757,   +0.00439,    -0.00878,    +0.99552,   +0.11362,    +0.07819,    -0.00244,  -15.42800,   -55.21600,    +1.16000
   676187006,   -0.00439,    -0.00659,    +0.99918,   +0.11606,    +0.07819,    -0.00122,  -15.48600,   -55.39000,    +0.81200
   676198256,   -0.00952,    -0.00732,    +0.99259,   +0.11118,    +0.07819,    +0.00000,  -15.54400,   -55.33200,    +0.52200
   676209504,   -0.00220,    -0.00512,    +0.99406,   +0.11240,    +0.07819,    +0.00122,  -15.54400,   -55.33200,    +0.52200
   676220753,   -0.01171,    -0.01318,    +0.99918,   +0.10751,    +0.07697,    -0.00122,  -15.83400,   -55.21600,    +0.29000
   676232155,   +0.00073,    -0.00952,    +0.99625,   +0.11240,    +0.08308,    -0.00122,  -15.37000,   -54.63600,    +0.69600
   676243405,   -0.01098,    -0.01318,    +0.99845,   +0.10751,    +0.07575,    +0.00122,  -15.89200,   -54.92600,    +0.29000
   676254667,   +0.00000,    -0.00659,    +0.99698,   +0.11118,    +0.07697,    +0.00000,  -15.19600,   -54.40400,    +0.87000
   676265917,   -0.00220,    -0.00805,    +0.98454,   +0.10629,    +0.07697,    +0.00000,  -15.08000,   -54.86800,    +1.04400
   676277167,   +0.00146,    -0.00512,    +0.99698,   +0.11484,    +0.08552,    -0.00122,  -15.89200,   -55.33200,    +0.58000
   676288417,   -0.00220,    -0.01464,    +0.99845,   +0.10996,    +0.07453,    +0.00000,  -15.60200,   -55.21600,    +0.52200
   676299666,   -0.00586,    -0.00659,    +0.99552,   +0.11240,    +0.07819,    +0.00000,  -15.60200,   -55.21600,    +0.52200
   676310917,   -0.00512,    -0.00732,    +0.99113,   +0.11240,    +0.08063,    -0.00244,  -15.42800,   -55.04200,    +0.63800
   676322167,   -0.00293,    -0.01318,    +1.00650,   +0.11118,    +0.07453,    +0.00000,  -15.54400,   -55.10000,    +0.81200
   676333412,   -0.00073,    -0.01171,    +0.98966,   +0.11118,    +0.07208,    +0.00244,  -15.60200,   -54.75200,    -0.34800
   676344671,   +0.00293,    -0.00659,    +0.99698,   +0.10873,    +0.07453,    +0.00122,  -15.71800,   -55.68000,    +1.04400
   676355921,   -0.00512,    -0.01098,    +0.99991,   +0.11118,    +0.07453,    -0.00122,  -15.60200,   -55.39000,    +1.68200
   676367171,   -0.00073,    -0.01610,    +0.99918,   +0.11484,    +0.07453,    +0.00122,  -15.19600,   -55.27400,    +0.58000
   676378422,   +0.00000,    -0.01391,    +0.99259,   +0.11362,    +0.07819,    -0.00122,  -15.66000,   -55.91200,    +0.58000
   676389670,   -0.00439,    -0.00878,    +0.99918,   +0.11362,    +0.08063,    +0.00122,  -15.66000,   -55.91200,    +0.58000
   676400919,   -0.00586,    -0.01757,    +0.98527,   +0.12095,    +0.07453,    +0.00611,  -16.00800,   -55.27400,    +1.04400
   676412168,   +0.00000,    -0.00659,    +1.00211,   +0.11362,    +0.07697,    +0.00367,  -15.54400,   -55.27400,    +0.81200
   676423420,   +0.00586,    -0.00805,    +0.99698,   +0.10629,    +0.07941,    +0.00244,  -15.83400,   -54.75200,    +1.50800
   676434673,   +0.00073,    -0.01171,    +0.99625,   +0.11240,    +0.07819,    -0.00122,  -16.06600,   -54.81000,    +0.46400
   676445923,   -0.00293,    -0.00878,    +0.99406,   +0.10751,    +0.07819,    +0.00122,  -15.89200,   -55.27400,    +0.63800
   676457174,   +0.00073,    -0.00512,    +0.99332,   +0.10873,    +0.07575,    +0.00000,  -15.02200,   -54.86800,    +0.87000
   676468424,   -0.00586,    -0.00659,    +0.99113,   +0.11606,    +0.07575,    +0.00489,  -15.54400,   -55.68000,    +0.87000
   676479672,   +0.00000,    -0.00952,    +0.99479,   +0.11729,    +0.07941,    +0.00122,  -15.54400,   -55.68000,    +0.87000
   676490920,   +0.00293,    -0.00512,    +0.99332,   +0.11240,    +0.08063,    +0.00244,  -15.95000,   -55.27400,    +1.45000
   676502169,   -0.00220,    -0.00805,    +0.98747,   +0.11362,    +0.07819,    +0.00122,  -15.54400,   -55.85400,    +0.69600
   676513423,   -0.00512,    -0.01098,    +0.99332,   +0.10996,    +0.07697,    +0.00244,  -15.83400,   -55.10000,    +1.21800
   676524673,   -0.00146,    -0.01391,    +0.99772,   +0.11362,    +0.07086,    +0.00244,  -15.54400,   -55.10000,    +1.21800
   676535922,   +0.00146,    -0.00878,    +0.99332,   +0.10996,    +0.07941,    -0.00244,  -15.42800,   -55.04200,    +0.75400
   676547171,   +0.18080,    -0.00952,    +0.99113,   +0.10873,    +0.07453,    +0.00122,  -15.89200,   -54.98400,    +1.33400
   676558419,   -0.00073,    -0.00952,    +0.99479,   +0.11729,    +0.08063,    -0.00122,  -14.67400,   -55.33200,    +1.21800
   676569664,   -0.01098,    -0.00952,    +1.00211,   +0.11484,    +0.07941,    -0.00122,  -14.67400,   -55.33200,    +1.21800
   676580912,   -0.00366,    -0.00805,    +0.98674,   +0.10751,    +0.08186,    +0.00367,  -15.08000,   -54.86800,    +1.45000
   676592161,   -0.00512,    -0.00439,    +0.99772,   +0.11729,    +0.07330,    +0.00244,  -14.79000,   -55.27400,    +1.91400
   676603476,   -0.01098,    -0.01171,    +0.99479,   +0.11729,    +0.07575,    +0.00000,  -15.31200,   -54.46200,    +1.50800
   676614733,   +0.00146,    -0.00659,    +0.99772,   +0.11729,    +0.07575,    +0.00122,  -15.13800,   -55.21600,    +1.33400
   676626006,   -0.00732,    -0.00732,    +0.98747,   +0.11240,    +0.07086,    +0.00122,  -15.25400,   -55.21600,    +1.91400
   676637255,   +0.00220,    -0.00952,    +0.99113,   +0.11118,    +0.07453,    -0.00122,  -15.37000,   -55.10000,    +1.74000
   676648505,   -0.00073,    -0.01098,    +0.99845,   +0.11118,    +0.07453,    +0.00000,  -14.44200,   -55.21600,    +1.33400
   676659780,   -0.00220,    -0.00805,    +0.99625,   +0.10751,    +0.08186,    -0.00244,  -14.44200,   -55.21600,    +1.33400
   676671028,   -0.01244,    -0.01464,    +0.99186,   +0.10996,    +0.07575,    +0.00244,  -15.19600,   -55.39000,    +1.62400
   676682285,   -0.00220,    -0.01025,    +0.99772,   +0.11118,    +0.07941,    +0.00000,  -15.54400,   -55.21600,    +1.45000
   676693530,   -0.00439,    -0.01171,    +0.99332,   +0.10996,    +0.08063,    +0.00367,  -15.02200,   -55.33200,    +0.92800
   676704802,   -0.00952,    -0.01171,    +0.99479,   +0.11240,    +0.07575,    +0.00367,  -15.13800,   -54.52000,    +0.75400
   676716048,   -0.00732,    -0.00805,    +0.99991,   +0.10873,    +0.06842,    +0.00367,  -15.19600,   -54.81000,    +0.98600
   676727292,   -0.00293,    -0.01537,    +0.99625,   +0.10629,    +0.07941,    +0.00489,  -14.73200,   -54.81000,    +0.92800
   676738538,   +0.00439,    -0.01098,    +0.98747,   +0.10629,    +0.07330,    +0.00000,  -14.21000,   -54.46200,    +1.16000
   676749786,   -0.00512,    -0.00805,    +0.99625,   +0.11484,    +0.08063,    +0.00000,  -14.21000,   -54.46200,    +1.16000
   676761033,   -0.00220,    -0.00659,    +0.98820,   +0.11484,    +0.07575,    -0.00122,  -14.73200,   -54.86800,    +0.98600
   676772280,   +0.00073,    -0.01464,    +0.98966,   +0.11851,    +0.07697,    +0.00122,  -15.83400,   -54.81000,    +0.52200
   676783526,   +0.00220,    -0.01098,    +0.98747,   +0.11362,    +0.07697,    +0.00244,  -15.08000,   -55.21600,    +0.98600
   676794816,   +0.00146,    -0.00439,    +0.99845,   +0.10873,    +0.08063,    +0.00244,  -15.19600,   -55.04200,    +1.50800
   676806062,   -0.00439,    -0.00952,    +0.99625,   +0.11484,    +0.07819,    -0.00122,  -14.79000,   -54.92600,    +1.21800
   676817337,   -0.00586,    -0.01098,    +0.99845,   +0.11729,    +0.07819,    +0.00489,  -15.08000,   -55.39000,    +1.27600
   676828589,   -0.00293,    -0.00512,    +0.98893,   +0.11118,    +0.07575,    -0.00244,  -14.15200,   -55.10000,    +1.04400
   676839836,   -0.00220,    -0.00732,    +0.99845,   +0.10751,    +0.07575,    +0.00367,  -14.15200,   -55.10000,    +1.04400
   676851080,   -0.00805,    -0.00732,    +0.99625,   +0.11118,    +0.07697,    +0.00122,  -14.61600,   -54.69400,    +1.16000
   676862349,   +0.00146,    -0.01025,    +0.99479,   +0.11362,    +0.07208,    -0.00122,  -14.73200,   -55.33200,    +1.50800
   676873593,   +0.00220,    -0.00366,    +0.99113,   +0.11240,    +0.07819,    +0.00244,  -15.13800,   -55.04200,    +0.29000
   676884856,   -0.00878,    -0.01244,    +0.99186,   +0.11240,    +0.07453,    +0.00122,  -15.37000,   -54.92600,    +1.45000
   676896104,   -0.00293,    -0.01537,    +0.99259,   +0.10996,    +0.07819,    +0.00122,  -15.13800,   -54.86800,    +0.98600
   676907350,   -0.00220,    -0.01025,    +0.98966,   +0.11118,    +0.07453,    +0.00855,  -14.67400,   -54.63600,    +1.27600
   676918596,   -0.00586,    -0.00293,    +0.99698,   +0.11362,    +0.08308,    -0.00122,  -14.79000,   -55.04200,    +0.69600
   676929843,   -0.00439,    -0.01391,    +0.97942,   +0.11729,    +0.08430,    +0.00122,  -14.79000,   -55.04200,    +0.69600
   676941091,   -0.00439,    -0.00952,    +0.99552,   +0.11484,    +0.07819,    -0.00122,  -14.96400,   -55.15800,    +1.56600
   676952337,   +0.00293,    -0.01318,    +0.99332,   +0.10873,    +0.07819,    +0.00489,  -15.02200,   -54.92600,    +0.58000
   676963648,   -0.00146,    -0.00878,    +0.99772,   +0.11606,    +0.07453,    +0.00367,  -15.02200,   -55.10000,    +0.98600
   676974944,   +0.00000,    -0.00659,    +0.99113,   +0.11362,    +0.06964,    +0.00122,  -14.84800,   -55.21600,    -0.11600
   676986194,   -0.00659,    -0.00878,    +0.99406,   +0.11973,    +0.07575,    +0.00122,  -14.90600,   -54.98400,    +0.98600
   676997440,   -0.00220,    -0.00366,    +0.99552,   +0.10873,    +0.08063,    +0.00244,  -15.42800,   -55.21600,    +0.34800
   677008703,   -0.00952,    -0.00512,    +0.99113,   +0.11240,    +0.07819,    -0.00367,  -14.84800,   -55.56400,    +1.62400
   677019952,   -0.00439,    -0.00952,    +0.99406,   +0.11484,    +0.07819,    +0.00244,  -14.84800,   -55.56400,    +1.62400
   677031199,   +0.00146,    -0.01318,    +0.99186,   +0.10873,    +0.08063,    +0.00000,  -15.25400,   -54.86800,    +1.74000
   677042472,   -0.00512,    -0.01318,    +0.99332,   +0.11729,    +0.08063,    +0.00122,  -14.67400,   -54.81000,    +0.92800
   677053720,   -0.00586,    -0.01391,    +0.99332,   +0.11362,    +0.07941,    +0.00244,  -14.84800,   -54.69400,    +1.27600
   677065026,   -0.00439,    -0.01025,    +0.99772,   +0.11362,    +0.07575,    +0.00000,  -14.84800,   -54.69400,    +0.58000
   677076277,   +0.00000,    -0.00952,    +0.99406,   +0.10996,    +0.07575,    -0.00367,  -14.55800,   -54.17200,    +0.98600
   677087532,   +0.00000,    -0.00878,    +0.99918,   +0.11118,    +0.08063,    +0.00000,  -14.96400,   -54.86800,    +0.98600
   677098781,   -0.00073,    -0.01171,    +1.00064,   +0.10996,    +0.07330,    +0.00000,  -14.96400,   -55.10000,    +1.27600
   677110035,   +0.00000,    -0.01391,    +0.99479,   +0.11484,    +0.07453,    +0.00244,  -14.96400,   -55.10000,    +1.27600
   677121283,   -0.00293,    -0.01318,    +0.99479,   +0.11484,    +0.07941,    -0.00489,  -14.73200,   -54.92600,    +1.16000
   677132576,   -0.00293,    -0.00952,    +0.99625,   +0.10873,    +0.08063,    +0.00244,  -14.32600,   -54.63600,    +1.91400
   677143822,   -0.00293,    -0.00805,    +0.99991,   +0.11240,    +0.07819,    -0.00244,  -14.15200,   -54.86800,    +1.62400
   677155133,   -0.00293,    -0.00659,    +1.00138,   +0.11240,    +0.07575,    +0.00367,  -14.67400,   -54.86800,    +1.62400
   677166403,   +0.00073,    -0.00659,    +0.98600,   +0.11606,    +0.07819,    +0.00489,  -14.96400,   -54.57800,    +0.75400
   677177677,   +0.00000,    -0.00073,    +0.98600,   +0.11362,    +0.07819,    +0.00000,  -14.73200,   -55.39000,    +1.10200
   677188923,   -0.00073,    -0.00586,    +0.99406,   +0.10996,    +0.07819,    +0.00000,  -13.97800,   -54.98400,    +0.40600
   677200216,   +0.00146,    -0.01025,    +0.99991,   +0.10996,    +0.07453,    +0.00122,  -14.90600,   -54.57800,    +1.21800
   677211464,   -0.00146,    -0.00512,    +0.99772,   +0.10629,    +0.07453,    +0.00244,  -14.90600,   -54.57800,    +1.21800
   677222712,   -0.00952,    -0.00293,    +0.98966,   +0.11240,    +0.07819,    +0.00122,  -14.96400,   -55.04200,    +1.27600
   677233959,   +0.00073,    -0.01244,    +0.99186,   +0.11606,    +0.07697,    +0.00000,  -14.73200,   -54.69400,    +1.50800
   677245205,   +0.00220,    -0.00952,    +1.00284,   +0.11484,    +0.07941,    -0.00489,  -14.26800,   -55.10000,    +1.68200
   677256452,   -0.00659,    -0.01098,    +0.99406,   +0.11362,    +0.07453,    -0.00367,  -14.73200,   -54.92600,    +0.46400
   677267697,   +0.00073,    -0.00512,    +0.99113,   +0.10996,    +0.07453,    -0.00122,  -14.73200,   -55.21600,    +0.63800
   677278947,   -0.00146,    -0.01025,    +0.99259,   +0.10996,    +0.07330,    +0.00367,  -14.50000,   -54.98400,    +1.45000
   677290193,   +0.00073,    -0.00586,    +0.98966,   +0.10873,    +0.08063,    -0.00122,  -14.26800,   -54.63600,    +1.56600
   677301439,   -0.00366,    -0.01391,    +0.99698,   +0.10751,    +0.07575,    +0.00122,  -14.26800,   -54.63600,    +1.56600
   677312683,   -0.00293,    -0.00952,    +0.99259,   +0.11118,    +0.07819,    -0.00122,  -14.67400,   -54.46200,    +1.97200
   677324047,   -0.00146,    -0.01098,    +0.99698,   +0.11362,    +0.07941,    +0.00489,  -14.26800,   -54.28800,    +1.50800
   677335314,   +0.00073,    -0.00878,    +0.99625,   +0.11118,    +0.07697,    -0.00122,  -15.02200,   -54.75200,    +1.33400
   677346580,   -0.00805,    -0.00878,    +0.98674,   +0.11240,    +0.08063,    +0.00000,  -14.21000,   -54.23000,    +1.27600
   677357830,   -0.01171,    -0.00659,    +0.99479,   +0.11240,    +0.07819,    +0.00122,  -14.26800,   -53.99800,    +1.16000
   677369076,   +0.00073,    -0.01025,    +0.99698,   +0.10751,    +0.07453,    +0.00489,  -14.26800,   -53.59200,    +0.81200
   677380342,   -0.00512,    -0.00220,    +0.99113,   +0.11240,    +0.07941,    -0.00367,  -14.03600,   -54.40400,    +1.91400
   677391588,   -0.00220,    -0.00512,    +0.99625,   +0.10996,    +0.07575,    -0.00244,  -14.03600,   -54.40400,    +1.91400
   677402833,   -0.00293,    -0.01391,    +0.99552,   +0.11484,    +0.07697,    +0.00122,  -14.50000,   -54.75200,    +0.81200
   677414081,   +0.00146,    -0.01244,    +0.99479,   +0.11729,    +0.08186,    +0.00122,  -14.73200,   -54.75200,    +0.40600
   677425342,   -0.00732,    -0.01610,    +0.98820,   +0.10996,    +0.07575,    +0.00122,  -14.44200,   -54.57800,    +1.10200
   677436593,   -0.00512,    -0.01391,    +0.99625,   +0.11118,    +0.07453,    -0.00367,  -14.67400,   -53.88200,    +0.11600
   677447842,   -0.00659,    -0.00732,    +0.99845,   +0.11118,    +0.07941,    -0.00244,  -14.79000,   -54.98400,    +0.75400
   677459098,   +0.00146,    -0.00659,    +0.99406,   +0.10751,    +0.08308,    -0.00244,  -14.44200,   -54.34600,    +0.58000
   677470361,   +0.00000,    -0.00952,    +0.98820,   +0.11240,    +0.07453,    +0.00122,  -14.84800,   -54.86800,    +0.69600
   677481630,   +0.00000,    -0.01244,    +0.99406,   +0.11729,    +0.07575,    +0.00000,  -14.84800,   -54.86800,    +0.69600
   677492900,   +0.00220,    -0.01171,    +1.00284,   +0.10751,    +0.07330,    +0.00000,  -14.73200,   -54.81000,    +0.11600
   677504182,   -0.00586,    -0.01391,    +0.99552,   +0.10996,    +0.07697,    -0.00489,  -14.73200,   -54.98400,    +0.81200
   677515426,   +0.00220,    -0.00952,    +0.99332,   +0.10996,    +0.07330,    +0.00367,  -14.73200,   -54.86800,    +0.34800
   677526693,   -0.00952,    -0.00659,    +0.99040,   +0.11240,    +0.07819,    +0.00122,  -14.50000,   -54.86800,    -0.23200
   677537952,   -0.00732,    -0.00878,    +0.99552,   +0.10873,    +0.07453,    -0.00367,  -14.79000,   -54.81000,    -0.00000
   677549198,   -0.00220,    -0.01318,    +0.99552,   +0.10873,    +0.07330,    +0.00000,  -14.44200,   -54.52000,    -0.11600
   677560444,   -0.00220,    -0.00952,    +0.99845,   +0.11484,    +0.07819,    +0.00000,  -14.73200,   -54.11400,    +0.52200
   677571689,   +0.00073,    -0.01025,    +0.99552,   +0.11240,    +0.07697,    +0.00122,  -14.73200,   -54.11400,    +0.52200
   677582941,   +0.00220,    -0.00512,    +0.99259,   +0.11362,    +0.07208,    +0.00122,  -14.38400,   -55.21600,    +0.75400
   677594210,   +0.00220,    -0.01318,    +1.00138,   +0.11118,    +0.07819,    +0.00122,  -14.96400,   -55.10000,    +0.52200
   677605467,   -0.00293,    -0.01025,    +0.99113,   +0.10996,    +0.07819,    -0.00122,  -15.25400,   -54.81000,    -0.17400
   677616714,   +0.00293,    -0.00952,    +0.99186,   +0.11118,    +0.07208,    +0.00000,  -14.38400,   -54.92600,    +0.29000
   677628007,   -0.00805,    -0.02050,    +0.99625,   +0.11362,    +0.07208,    +0.00122,  -14.55800,   -54.34600,    +0.46400
   677639257,   +0.00073,    -0.01318,    +0.99991,   +0.11606,    +0.07819,    +0.00122,  -14.50000,   -55.10000,    +0.23200
   677650509,   -0.00439,    -0.01025,    +0.99113,   +0.10996,    +0.07575,    +0.00244,  -14.55800,   -55.15800,    +0.87000
   677661772,   -0.00732,    -0.01244,    +0.99698,   +0.11729,    +0.07819,    +0.00122,  -14.55800,   -55.15800,    +0.87000
   677673019,   +0.00146,    -0.01244,    +0.99991,   +0.10873,    +0.07208,    +0.00122,  -14.73200,   -54.75200,    +0.87000
   677684353,   -0.00293,    -0.00805,    +0.99552,   +0.11118,    +0.07575,    +0.00244,  -14.50000,   -55.33200,    +0.40600
   677695610,   +0.00073,    -0.00512,    +1.00138,   +0.10996,    +0.07453,    -0.00122,  -14.73200,   -54.98400,    +1.10200
   677706858,   +0.00000,    -0.00586,    +0.98308,   +0.10751,    +0.07697,    +0.00000,  -14.32600,   -54.63600,    +0.98600
   677718126,   -0.01025,    -0.01244,    +0.99479,   +0.11118,    +0.06842,    +0.00367,  -14.73200,   -54.46200,    +1.04400
   677729376,   -0.00512,    -0.00878,    +0.99845,   +0.11362,    +0.07697,    +0.00244,  -14.50000,   -54.86800,    +1.27600
   677740644,   -0.00073,    -0.00439,    +0.99113,   +0.10629,    +0.07941,    +0.00122,  -14.79000,   -55.10000,    +0.69600
   677751895,   -0.00073,    -0.01025,    +0.99552,   +0.10751,    +0.07575,    +0.00244,  -14.79000,   -55.10000,    +0.69600
   677763165,   -0.00439,    -0.01098,    +0.99552,   +0.11484,    +0.08063,    +0.00244,  -14.90600,   -54.34600,    +1.27600
   677774417,   -0.00659,    -0.00293,    +0.99845,   +0.10996,    +0.07697,    +0.00244,  -14.79000,   -54.34600,    +1.10200
   677785663,   +0.00073,    -0.00878,    +0.99332,   +0.11240,    +0.07697,    +0.00244,  -15.31200,   -54.75200,    +0.92800
   677796929,   -0.00146,    -0.00512,    +0.99918,   +0.10751,    +0.07575,    +0.00000,  -14.09400,   -54.81000,    +0.63800
   677808178,   +0.00073,    -0.01025,    +0.99918,   +0.10140,    +0.07697,    -0.00489,  -14.44200,   -54.57800,    +0.40600
   677819449,   +0.00000,    -0.00659,    +0.98747,   +0.11606,    +0.07330,    -0.00489,  -14.96400,   -54.63600,    +1.04400
   677830717,   +0.00000,    -0.00659,    +0.99772,   +0.11606,    +0.07819,    -0.00122,  -14.38400,   -54.40400,    +1.16000
   677842004,   -0.00293,    -0.01244,    +0.99332,   +0.11484,    +0.07575,    +0.00244,  -14.38400,   -54.40400,    +1.16000
   677853251,   -0.00366,    -0.01391,    +1.00577,   +0.10507,    +0.07575,    +0.00122,  -14.55800,   -54.57800,    +1.85600
   677864505,   -0.00366,    -0.00732,    +0.99186,   +0.11851,    +0.08063,    -0.00122,  -14.96400,   -55.10000,    +1.74000
   677875753,   -0.00293,    -0.00659,    +0.99406,   +0.10873,    +0.07819,    +0.00122,  -14.79000,   -55.39000,    +0.46400
   677887001,   -0.00220,    -0.01610,    +1.00284,   +0.11484,    +0.08308,    -0.00122,  -15.02200,   -55.21600,    +0.34800
   677898249,   -0.00293,    -0.00439,    +0.99845,   +0.11851,    +0.07575,    +0.00000,  -14.61600,   -54.86800,    +0.40600
   677909496,   +0.00220,    -0.00732,    +0.99332,   +0.11240,    +0.08308,    -0.00367,  -14.55800,   -54.81000,    +0.29000
   677920744,   -0.00220,    -0.00586,    +0.99918,   +0.10996,    +0.07697,    +0.00244,  -14.26800,   -54.23000,    +0.11600
   677932010,   +0.00000,    -0.01025,    +0.99040,   +0.11240,    +0.08063,    -0.00122,  -14.26800,   -54.23000,    +0.11600
   677943257,   +0.00146,    -0.00952,    +1.00211,   +0.11118,    +0.07819,    +0.00122,  -14.79000,   -55.10000,    +0.17400
   677954528,   -0.00659,    -0.00659,    +0.99772,   +0.10629,    +0.07697,    +0.00244,  -14.55800,   -55.04200,    +0.29000
   677965778,   -0.00146,    -0.00439,    +1.00577,   +0.11729,    +0.07208,    +0.00122,  -14.84800,   -54.52000,    +1.16000
   677977025,   -0.00805,    -0.00439,    +0.99040,   +0.11729,    +0.07208,    +0.00122,  -14.50000,   -54.34600,    +1.33400
   677988309,   -0.00952,    -0.00878,    +0.99845,   +0.11362,    +0.07941,    -0.00122,  -14.79000,   -54.63600,    +0.75400
   677999560,   -0.00073,    -0.01391,    +0.99479,   +0.11484,    +0.08063,    +0.00000,  -15.08000,   -54.81000,    +0.98600
   678010850,   -0.00073,    -0.00732,    +0.99479,   +0.10751,    +0.08186,    +0.00122,  -14.61600,   -55.21600,    +1.21800
   678022097,   +0.00512,    -0.01098,    +1.00211,   +0.11118,    +0.07697,    +0.00244,  -14.61600,   -55.21600,    +1.21800
   678033341,   +0.00000,    -0.01610,    +0.99772,   +0.11484,    +0.08063,    +0.00000,  -14.21000,   -54.75200,    +0.63800
   678044652,   -0.00220,    -0.01025,    +0.98966,   +0.11118,    +0.08063,    +0.00244,  -15.13800,   -54.75200,    +0.40600
   678055961,   +0.00220,    -0.01171,    +0.99186,   +0.10751,    +0.07819,    +0.00000,  -14.90600,   -55.10000,    +1.68200
   678067207,   -0.00439,    -0.00586,    +0.98966,   +0.11118,    +0.07819,    -0.00244,  -14.79000,   -55.21600,    +0.87000
   678078457,   -0.00512,    -0.01610,    +0.99772,   +0.11484,    +0.07941,    -0.00244,  -14.67400,   -55.21600,    +1.33400
   678089706,   -0.01171,    -0.01391,    +0.99113,   +0.10996,    +0.07941,    +0.00244,  -14.96400,   -55.10000,    +1.45000
   678100979,   -0.00146,    -0.00732,    +1.00211,   +0.10873,    +0.07575,    +0.00611,  -14.84800,   -54.81000,    +1.33400
   678112227,   -0.00439,    -0.00366,    +0.99259,   +0.11240,    +0.07330,    +0.00122,  -14.67400,   -54.75200,    +0.98600
   678123498,   +0.00073,    -0.01025,    +0.99040,   +0.10996,    +0.07208,    +0.00122,  -14.67400,   -54.75200,    +0.98600
   678134813,   +0.00146,    -0.00732,    +1.00064,   +0.11240,    +0.07697,    +0.00122,  -14.73200,   -54.75200,    +1.16000
   678146060,   +0.00073,    -0.00952,    +0.99772,   +0.11240,    +0.07941,    -0.00244,  -14.73200,   -54.98400,    +1.10200
   678157308,   +0.00220,    -0.00146,    +0.99406,   +0.10996,    +0.07819,    -0.00122,  -14.79000,   -54.92600,    +0.46400
   678168575,   -0.00732,    -0.00878,    +0.99406,   +0.11362,    +0.07575,    +0.00000,  -14.96400,   -54.86800,    +0.40600
   678179823,   +0.00146,    -0.01391,    +0.98966,   +0.11484,    +0.08186,    +0.00244,  -15.37000,   -54.98400,    +0.98600
   678191067,   +0.00439,    -0.01171,    +1.00138,   +0.11362,    +0.07575,    +0.00000,  -14.84800,   -54.86800,    +1.04400
   678202336,   +0.00293,    -0.01171,    +1.00138,   +0.11118,    +0.07453,    +0.00000,  -14.96400,   -54.63600,    +1.27600
   678213580,   -0.00439,    -0.00732,    +0.98747,   +0.11240,    +0.07697,    -0.00244,  -14.96400,   -54.63600,    +1.27600
   678224807,   -0.00512,    -0.01025,    +0.99406,   +0.12095,    +0.07453,    +0.00244,  -14.84800,   -55.33200,    +1.50800
   678236053,   +0.00439,    -0.00512,    +0.98600,   +0.11118,    +0.07941,    +0.00000,  -14.84800,   -54.46200,    +1.45000
   678247313,   -0.00439,    -0.01098,    +0.99552,   +0.10996,    +0.07697,    -0.00122,  -14.67400,   -54.52000,    +1.50800
   678258559,   -0.00952,    -0.01830,    +0.99479,   +0.11484,    +0.07819,    +0.00000,  -14.96400,   -54.63600,    +0.98600
   678269859,   -0.00293,    -0.00659,    +0.99259,   +0.11729,    +0.07575,    -0.00122,  -15.19600,   -54.28800,    +0.58000
   678281110,   -0.00366,    -0.00952,    +1.00504,   +0.10996,    +0.07819,    +0.00122,  -15.48600,   -54.40400,    +1.45000
   678292387,   -0.00512,    -0.01171,    +0.99332,   +0.10996,    +0.07697,    +0.00367,  -14.79000,   -55.04200,    +1.10200
   678303655,   -0.00439,    -0.00805,    +0.98893,   +0.10996,    +0.07697,    +0.00122,  -14.79000,   -55.04200,    +1.10200
   678314941,   -0.00220,    -0.01244,    +0.99406,   +0.11729,    +0.07330,    +0.00000,  -15.13800,   -54.69400,    +0.23200
   678326191,   -0.00439,    -0.00366,    +0.99406,   +0.11606,    +0.07575,    +0.00367,  -14.96400,   -54.23000,    +1.27600
   678337438,   +0.00220,    -0.01610,    +0.99918,   +0.11118,    +0.07086,    +0.00489,  -15.13800,   -54.69400,    +2.49400
   678348704,   -0.01025,    -0.00586,    +0.99772,   +0.10873,    +0.07941,    +0.00367,  -15.08000,   -55.44800,    +1.56600
   678359951,   +0.00000,    -0.00512,    +0.99918,   +0.11240,    +0.07575,    +0.00122,  -14.50000,   -55.15800,    +1.62400
   678371214,   +0.00220,    -0.00805,    +0.99040,   +0.10996,    +0.07086,    -0.00244,  -14.96400,   -54.57800,    +1.45000
   678382489,   -0.00146,    -0.00659,    +1.00211,   +0.11240,    +0.07330,    +0.00000,  -14.67400,   -55.04200,    +1.68200
   678393736,   -0.00146,    -0.00878,    +0.99918,   +0.11362,    +0.07697,    -0.00244,  -14.67400,   -55.04200,    +1.68200
   678405028,   -0.00220,    -0.01244,    +0.98966,   +0.10996,    +0.07697,    +0.00244,  -15.02200,   -55.21600,    +1.68200
   678416336,   +0.00293,    -0.00732,    +0.99113,   +0.10873,    +0.07819,    +0.00244,  -14.84800,   -54.81000,    +1.33400
   678427595,   -0.01171,    -0.01318,    +0.99698,   +0.11118,    +0.07941,    +0.00000,  -14.79000,   -55.10000,    +1.16000
   678438842,   -0.00073,    -0.00805,    +0.99040,   +0.11729,    +0.07575,    +0.00122,  -14.50000,   -54.69400,    +1.56600
   678450088,   -0.00952,    -0.01098,    +0.99186,   +0.10996,    +0.07819,    -0.00611,  -15.54400,   -55.15800,    +2.32000
   678461349,   +0.00293,    -0.00512,    +0.99259,   +0.11729,    +0.07575,    +0.00244,  -15.13800,   -54.63600,    +1.97200
   678472629,   -0.00146,    -0.01903,    +0.99259,   +0.11606,    +0.07941,    -0.00122,  -14.55800,   -54.57800,    +1.85600
   678483904,   +0.00220,    -0.01537,    +0.98893,   +0.10140,    +0.08063,    +0.00367,  -14.55800,   -54.57800,    +1.85600
   678495154,   -0.00146,    -0.00805,    +0.99772,   +0.11362,    +0.08552,    -0.00611,  -14.90600,   -54.69400,    +1.39200
   678506426,   +0.00146,    -0.00586,    +0.99552,   +0.11851,    +0.07941,    -0.00122,  -15.02200,   -55.33200,    +2.08800
   678517673,   -0.00073,    -0.00659,    +0.99772,   +0.10873,    +0.07453,    +0.00611,  -14.96400,   -55.04200,    +1.10200
   678528920,   -0.00659,    -0.01537,    +0.99552,   +0.11729,    +0.07941,    +0.00733,  -14.90600,   -54.63600,    +0.81200
   678540163,   +0.00000,    -0.00586,    +0.99259,   +0.11606,    +0.07575,    +0.00122,  -14.84800,   -54.81000,    +1.21800
   678551410,   +0.00220,    -0.00952,    +0.99332,   +0.11606,    +0.07575,    -0.00489,  -14.96400,   -55.04200,    +1.74000
   678562676,   -0.00366,    -0.01318,    +0.98893,   +0.11606,    +0.08186,    +0.00000,  -14.50000,   -55.44800,    +1.56600
   678573912,   -0.00146,    -0.00293,    +1.00357,   +0.11240,    +0.07697,    +0.00122,  -14.50000,   -55.44800,    +1.56600
   678585183,   -0.00146,    -0.00805,    +0.99479,   +0.11118,    +0.07941,    +0.00244,  -14.61600,   -54.46200,    +2.43600
   678596430,   +0.00220,    -0.01098,    +0.99918,   +0.11362,    +0.08186,    -0.00122,  -14.55800,   -55.10000,    +0.69600
   678607725,   -0.00659,    -0.00805,    +0.99113,   +0.10751,    +0.08186,    +0.00122,  -14.84800,   -54.46200,    +0.92800
   678618977,   +0.00220,    -0.01684,    +0.99113,   +0.11362,    +0.07575,    -0.00122,  -14.50000,   -54.98400,    +1.10200
   678630242,   -0.01171,    -0.01464,    +0.99186,   +0.10996,    +0.08186,    -0.00122,  -14.84800,   -54.81000,    +0.58000
   678641497,   +0.00000,    -0.01025,    +0.99772,   +0.10996,    +0.07453,    +0.00000,  -14.67400,   -55.56400,    +1.10200
   678652764,   -0.00366,    -0.00366,    +1.00284,   +0.11606,    +0.08063,    +0.00000,  -14.61600,   -55.15800,    +1.62400
   678664065,   +0.00000,    -0.00878,    +0.99406,   +0.10751,    +0.07575,    +0.00122,  -14.61600,   -55.15800,    +1.62400
   678675324,   -0.00073,    -0.00512,    +0.99040,   +0.11362,    +0.07819,    +0.00489,  -14.67400,   -54.92600,    +0.87000
   678686622,   +0.00512,    -0.01098,    +0.98527,   +0.11240,    +0.07330,    +0.00000,  -14.90600,   -54.92600,    +0.29000
   678697890,   -0.00073,    -0.00732,    +0.99698,   +0.10996,    +0.07697,    -0.00122,  -14.55800,   -54.69400,    +0.63800
   678709140,   -0.00073,    -0.01391,    +0.99918,   +0.11484,    +0.07575,    -0.00122,  -14.44200,   -54.69400,    +0.40600
   678720415,   -0.00439,    -0.00805,    +0.99406,   +0.10996,    +0.07575,    +0.00122,  -15.42800,   -54.98400,    +0.11600
   678731662,   -0.00439,    -0.00878,    +1.00504,   +0.11484,    +0.07575,    +0.00000,  -14.50000,   -54.69400,    +0.34800
   678742928,   -0.00293,    -0.00952,    +0.99113,   +0.10996,    +0.07697,    +0.00367,  -14.73200,   -54.98400,    +0.58000
   678754205,   -0.00586,    -0.00732,    +0.99332,   +0.11240,    +0.08063,    +0.00000,  -14.73200,   -54.98400,    +0.58000
   678765468,   -0.01098,    -0.00439,    +0.99040,   +0.10996,    +0.07330,    +0.00122,  -14.50000,   -54.98400,    +1.16000
   678776812,   -0.00366,    -0.00586,    +0.99918,   +0.11240,    +0.08063,    -0.00122,  -14.79000,   -54.86800,    +2.08800
   678788077,   -0.00073,    -0.00952,    +0.99259,   +0.11851,    +0.08186,    +0.00244,  -14.26800,   -55.10000,    +0.87000
   678799329,   -0.00220,    -0.00586,    +1.00138,   +0.11362,    +0.07575,    -0.00367,  -14.79000,   -55.44800,    +1.45000
   678810577,   -0.00293,    -0.01025,    +0.99040,   +0.11240,    +0.08186,    +0.00611,  -14.32600,   -55.44800,    +0.63800
   678821835,   -0.00659,    -0.01684,    +0.98966,   +0.11240,    +0.08186,    -0.00244,  -14.50000,   -54.81000,    +1.50800
   678833068,   +0.00000,    -0.00732,    +0.99552,   +0.10996,    +0.07208,    +0.00122,  -14.38400,   -54.81000,    +1.04400
   678844364,   -0.00732,    -0.01537,    +1.00357,   +0.11240,    +0.08186,    +0.00244,  -15.02200,   -54.81000,    +1.45000
   678855565,   -0.00439,    -0.01171,    +0.99332,   +0.10751,    +0.07575,    +0.00244,  -15.02200,   -54.86800,    +1.45000
   678866864,   +0.00073,    -0.00805,    +0.99332,   +0.11240,    +0.07819,    +0.00000,  -14.96400,   -54.75200,    +0.92800
   678878107,   -0.00220,    -0.01464,    +0.99186,   +0.10996,    +0.07453,    +0.00489,  -14.55800,   -54.69400,    +1.97200
   678889354,   +0.00439,    -0.00439,    +0.99698,   +0.11118,    +0.07941,    -0.00244,  -15.13800,   -54.81000,    +1.33400
   678900578,   -0.00220,    -0.01025,    +1.00943,   +0.10996,    +0.07575,    +0.00000,  -14.79000,   -55.27400,    +1.91400
   678911826,   -0.00146,    -0.00878,    +0.99625,   +0.11606,    +0.08430,    +0.00244,  -15.19600,   -54.52000,    +1.39200
   678923054,   -0.00220,    -0.01391,    +0.99259,   +0.11240,    +0.07575,    +0.00000,  -14.79000,   -55.39000,    +1.62400
   678934348,   -0.00220,    -0.01318,    +0.99991,   +0.11484,    +0.07575,    +0.00122,  -14.15200,   -54.81000,    +1.45000
   678945577,   +0.00586,    -0.00512,    +0.99991,   +0.11118,    +0.07941,    -0.00122,  -14.15200,   -54.81000,    +1.45000
   678956824,   -0.00732,    -0.01098,    +0.99918,   +0.11484,    +0.07575,    +0.00367,  -14.61600,   -54.69400,    +1.21800
   678968047,   -0.00146,    -0.00732,    +0.99406,   +0.11240,    +0.07941,    +0.00122,  -14.55800,   -54.28800,    +1.85600
   678979303,   -0.00220,    -0.01757,    +0.98600,   +0.11240,    +0.07941,    +0.00000,  -14.73200,   -54.63600,    +0.46400
   678990537,   -0.00293,    -0.01098,    +1.00284,   +0.11606,    +0.08186,    +0.00000,  -14.32600,   -54.92600,    +0.69600
   679001809,   -0.00293,    -0.00805,    +0.99113,   +0.11240,    +0.07941,    +0.00244,  -14.55800,   -54.57800,    +1.39200
   679013039,   -0.00146,    -0.01171,    +0.98820,   +0.10996,    +0.08063,    +0.00122,  -14.21000,   -54.63600,    +1.04400
   679024357,   -0.00146,    -0.00805,    +0.99479,   +0.10996,    +0.07575,    -0.00244,  -14.79000,   -54.40400,    +0.52200
   679035581,   -0.00220,    -0.00439,    +0.99625,   +0.11362,    +0.07697,    +0.00244,  -14.79000,   -54.40400,    +0.52200
   679046868,   -0.00220,    -0.00952,    +1.00504,   +0.11484,    +0.07819,    +0.00244,  -15.08000,   -54.46200,    -0.17400
   679058068,   -0.00512,    -0.01244,    +0.98527,   +0.10751,    +0.08063,    -0.00122,  -14.67400,   -54.69400,    +0.81200
   679069338,   -0.00146,    -0.01391,    +0.99332,   +0.11606,    +0.07819,    +0.00367,  -14.38400,   -54.75200,    +0.87000
   679080574,   -0.00146,    -0.01464,    +0.99113,   +0.11362,    +0.07819,    -0.00244,  -14.55800,   -54.75200,    +0.98600
   679091839,   -0.00073,    -0.00732,    +0.98600,   +0.10873,    +0.07941,    +0.00244,  -14.38400,   -54.98400,    +1.50800
   679103088,   +0.00073,    -0.00659,    +0.99479,   +0.10629,    +0.07819,    +0.00367,  -14.67400,   -54.46200,    +0.98600
   679114412,   +0.00073,    -0.00805,    +1.00138,   +0.11362,    +0.07575,    -0.00367,  -14.50000,   -54.92600,    +0.63800
   679125660,   -0.00220,    -0.00439,    +0.98966,   +0.11362,    +0.07819,    +0.00000,  -14.50000,   -54.92600,    +0.63800
   679136996,   +0.00293,    -0.01171,    +0.99845,   +0.10996,    +0.07819,    +0.00489,  -14.79000,   -54.63600,    +0.23200
   679148197,   -0.00512,    -0.00439,    +0.99845,   +0.11118,    +0.07453,    +0.00122,  -14.26800,   -55.04200,    +0.17400
   679159430,   -0.00146,    -0.01171,    +1.00138,   +0.11484,    +0.07330,    +0.00367,  -14.32600,   -54.52000,    +1.45000
   679170624,   -0.00512,    -0.00732,    +0.98893,   +0.11484,    +0.08186,    +0.00000,  -14.79000,   -55.10000,    +0.92800
   679181875,   -0.00512,    -0.00732,    +0.99332,   +0.10385,    +0.08063,    -0.00122,  -14.15200,   -55.04200,    -0.40600
   679193073,   -0.00586,    -0.00805,    +0.99918,   +0.10873,    +0.07819,    +0.00611,  -14.55800,   -54.28800,    -0.11600
   679204343,   -0.00073,    -0.00586,    +0.99845,   +0.11118,    +0.07575,    +0.00122,  -13.97800,   -55.10000,    +0.23200
   679215542,   -0.00073,    -0.01391,    +0.99406,   +0.11484,    +0.07819,    -0.00367,  -13.97800,   -55.10000,    +0.23200
   679226808,   +0.00000,    -0.01318,    +0.99186,   +0.10996,    +0.07697,    -0.00244,  -14.84800,   -54.69400,    +0.40600
   679238018,   +0.00073,    -0.01318,    +0.99552,   +0.10751,    +0.06964,    +0.00489,  -14.90600,   -54.75200,    +0.17400
   679249249,   -0.00293,    -0.01025,    +0.99772,   +0.11118,    +0.07941,    +0.00244,  -14.55800,   -54.81000,    +0.98600
   679260484,   -0.00952,    -0.01318,    +0.99698,   +0.11484,    +0.07453,    +0.00122,  -14.21000,   -55.21600,    +0.52200
   679271750,   -0.00220,    -0.01171,    +0.99186,   +0.11729,    +0.07697,    +0.00244,  -14.44200,   -55.27400,    +0.46400
   679282986,   +0.00000,    -0.01244,    +0.99772,   +0.11118,    +0.07453,    +0.00367,  -14.96400,   -54.86800,    +1.74000
   679294256,   +0.00073,    -0.01464,    +0.98820,   +0.11484,    +0.07819,    +0.00367,  -14.90600,   -54.46200,    +0.63800
   679305493,   +0.00366,    -0.00732,    +0.98893,   +0.11118,    +0.07819,    +0.00244,  -14.90600,   -54.46200,    +0.63800
   679316749,   -0.00512,    -0.00512,    +0.99625,   +0.11118,    +0.07330,    +0.00122,  -14.73200,   -54.81000,    -0.23200
   679327970,   +0.00293,    -0.01098,    +0.99259,   +0.11851,    +0.07941,    +0.00122,  -14.90600,   -55.15800,    +0.98600
   679339242,   -0.00146,    -0.01391,    +0.98966,   +0.11118,    +0.07575,    -0.00244,  -15.25400,   -54.98400,    -0.23200
   679350468,   -0.00146,    -0.00805,    +1.00650,   +0.10385,    +0.07941,    +0.00489,  -15.25400,   -54.92600,    +1.10200
   679361740,   -0.00805,    -0.00439,    +0.99625,   +0.12095,    +0.08063,    +0.00367,  -14.61600,   -55.15800,    +0.40600
   679372959,   -0.00512,    -0.00512,    +1.00064,   +0.10996,    +0.07697,    +0.00122,  -14.79000,   -54.57800,    +1.62400
   679384248,   -0.00659,    -0.00512,    +0.99772,   +0.11362,    +0.07453,    +0.00244,  -15.25400,   -54.69400,    +1.04400
   679395474,   -0.00220,    -0.01610,    +0.98527,   +0.11606,    +0.08186,    +0.00000,  -15.25400,   -54.69400,    +1.04400
   679406757,   +0.00073,    -0.01171,    +0.99845,   +0.10996,    +0.07697,    +0.00122,  -15.19600,   -55.10000,    +0.46400
   679417979,   +0.00146,    -0.01391,    +1.00064,   +0.11729,    +0.07819,    -0.00733,  -14.84800,   -54.75200,    +2.08800
   679429187,   +0.00293,    -0.01025,    +0.99772,   +0.11484,    +0.07819,    +0.00244,  -14.61600,   -54.81000,    +0.52200
   679440434,   -0.00146,    -0.00512,    +0.99991,   +0.11484,    +0.07941,    +0.00122,  -14.84800,   -54.81000,    +1.79800
   679451706,   -0.00073,    -0.00878,    +0.99406,   +0.11118,    +0.07208,    +0.00244,  -14.50000,   -55.10000,    +1.04400
   679462954,   -0.00366,    -0.00732,    +0.98820,   +0.10996,    +0.07941,    -0.00244,  -14.79000,   -54.52000,    +1.68200
   679474255,   +0.00073,    -0.00659,    +0.99552,   +0.11484,    +0.07697,    +0.00244,  -14.32600,   -54.17200,    +1.21800
   679485493,   -0.00220,    -0.00732,    +0.98600,   +0.10996,    +0.07697,    -0.00367,  -14.32600,   -54.17200,    +1.21800
   679496751,   +0.00146,    -0.00586,    +1.00138,   +0.11362,    +0.08186,    +0.00122,  -14.32600,   -54.52000,    +1.56600
   679508021,   -0.00586,    -0.01171,    +0.99698,   +0.11484,    +0.07819,    -0.00122,  -14.61600,   -54.63600,    +0.81200
   679519293,   +0.00293,    -0.00512,    +1.00723,   +0.11606,    +0.08186,    +0.00122,  -14.67400,   -55.33200,    +1.74000
   679530517,   +0.00293,    -0.00878,    +0.98966,   +0.11606,    +0.07819,    +0.00489,  -14.73200,   -54.40400,    +2.08800
   679541789,   -0.01098,    -0.00952,    +0.99332,   +0.11851,    +0.07819,    +0.00000,  -14.21000,   -55.10000,    +0.29000
   679553016,   -0.00512,    -0.01391,    +0.99918,   +0.11484,    +0.08186,    +0.00367,  -14.73200,   -54.11400,    +0.46400
   679564521,   -0.01171,    -0.01098,    +0.99113,   +0.11240,    +0.07697,    +0.00000,  -15.19600,   -54.86800,    +1.74000
   679575784,   -0.00439,    -0.01171,    +0.99332,   +0.11606,    +0.08063,    +0.00244,  -15.19600,   -54.86800,    +1.74000
   679587058,   -0.00073,    -0.01318,    +0.99918,   +0.11851,    +0.07941,    +0.00244,  -14.79000,   -54.92600,    +1.56600
   679598289,   -0.00146,    -0.01098,    +0.99625,   +0.11362,    +0.07941,    +0.00367,  -15.02200,   -55.62200,    +1.33400
   679609526,   +0.00220,    -0.00366,    +1.00430,   +0.10629,    +0.07941,    +0.00000,  -14.38400,   -54.81000,    +1.79800
   679620724,   +0.00146,    -0.01318,    +0.99259,   +0.11118,    +0.07697,    -0.00244,  -14.44200,   -54.75200,    +1.27600
   679631994,   +0.00220,    -0.00805,    +0.98966,   +0.11118,    +0.07697,    -0.00367,  -15.13800,   -55.33200,    +1.50800
   679643229,   +0.18300,    -0.00732,    +0.99259,   +0.11240,    +0.07819,    +0.00000,  -14.09400,   -54.52000,    +0.92800
   679654486,   +0.00146,    -0.01025,    +1.00723,   +0.11240,    +0.07697,    +0.00000,  -14.26800,   -54.98400,    -0.17400
   679665759,   +0.00000,    -0.00220,    +0.99406,   +0.11729,    +0.07453,    +0.00000,  -14.26800,   -54.98400,    -0.17400
   679676985,   +0.00073,    -0.00293,    +0.99479,   +0.10873,    +0.07941,    +0.00367,  -14.96400,   -55.44800,    +1.33400
   679688194,   -0.00366,    -0.00366,    +0.99698,   +0.10507,    +0.07941,    +0.00244,  -14.26800,   -54.40400,    +1.56600
   679699424,   -0.00146,    -0.00952,    +0.99113,   +0.11240,    +0.07697,    -0.00122,  -14.55800,   -55.33200,    +1.21800
   679710658,   -0.00146,    -0.00732,    +0.99040,   +0.10996,    +0.07697,    -0.00122,  -14.84800,   -54.98400,    +1.27600
   679721859,   -0.01025,    -0.00586,    +0.99625,   +0.11118,    +0.08308,    +0.00122,  -14.73200,   -54.57800,    +0.98600
   679733132,   -0.00220,    -0.01537,    +0.99698,   +0.10751,    +0.07697,    -0.00244,  -14.79000,   -54.63600,    +0.75400
   679744387,   -0.00439,    -0.01464,    +0.99698,   +0.10873,    +0.07453,    +0.00489,  -14.84800,   -54.86800,    +1.62400
   679755677,   -0.00439,    -0.01318,    +0.99625,   +0.10873,    +0.07575,    +0.00244,  -14.84800,   -54.86800,    +1.62400
   679766877,   +0.00146,    -0.00878,    +0.99040,   +0.11240,    +0.07819,    +0.00122,  -14.50000,   -55.21600,    +1.97200
   679778099,   +0.00366,    -0.00586,    +0.99332,   +0.11362,    +0.08674,    +0.00367,  -14.67400,   -55.15800,    +1.27600
   679789305,   -0.00586,    -0.00586,    +0.99552,   +0.11240,    +0.07697,    +0.00000,  -14.03600,   -55.04200,    +1.97200
   679800538,   -0.00220,    -0.01391,    +0.98893,   +0.11118,    +0.07575,    +0.00244,  -14.15200,   -55.21600,    +1.68200
   679811774,   -0.00512,    -0.01025,    +1.00138,   +0.11362,    +0.07453,    -0.00367,  -14.32600,   -54.98400,    +1.56600
   679822987,   -0.00659,    -0.01171,    +0.99772,   +0.10263,    +0.07453,    +0.00122,  -13.86200,   -54.86800,    +1.91400
   679834229,   +0.00000,    -0.01171,    +1.00211,   +0.10751,    +0.08186,    +0.00000,  -14.67400,   -54.81000,    +0.98600
   679845514,   +0.00293,    -0.00952,    +0.98893,   +0.11118,    +0.07697,    +0.00122,  -14.67400,   -54.81000,    +0.98600
   679856783,   +0.00000,    -0.00366,    +1.00064,   +0.10996,    +0.07453,    +0.00244,  -14.67400,   -54.98400,    +1.68200
   679868057,   -0.00073,    -0.00952,    +0.99259,   +0.11606,    +0.07941,    +0.00122,  -14.44200,   -55.44800,    +1.79800
   679879335,   -0.00220,    -0.01318,    +0.98527,   +0.11118,    +0.08063,    +0.00244,  -13.97800,   -54.92600,    +0.63800
   679890562,   -0.00805,    -0.01391,    +0.99113,   +0.11484,    +0.07697,    +0.00367,  -14.50000,   -54.69400,    +1.39200
   679901830,   -0.00220,    -0.01537,    +0.98747,   +0.10751,    +0.08063,    -0.00244,  -14.50000,   -54.86800,    +1.62400
   679913075,   -0.00366,    -0.01391,    +1.00138,   +0.11118,    +0.08186,    -0.00489,  -14.50000,   -55.04200,    +0.98600
   679924417,   -0.00366,    -0.00878,    +0.99698,   +0.11118,    +0.08186,    +0.00000,  -14.55800,   -54.86800,    +1.33400
   679935639,   -0.00146,    -0.00659,    +0.99259,   +0.11362,    +0.07575,    +0.00122,  -14.55800,   -54.86800,    +1.33400
   679946914,   -0.00146,    -0.00952,    +0.99772,   +0.11362,    +0.07819,    +0.00489,  -14.73200,   -54.92600,    +1.56600
   679958149,   +0.00000,    -0.01537,    +0.99406,   +0.11362,    +0.07697,    -0.00244,  -14.90600,   -54.57800,    +1.62400
   679969384,   -0.00805,    -0.00805,    +0.99918,   +0.11118,    +0.07819,    -0.00122,  -14.84800,   -54.52000,    +1.50800
   679980584,   -0.00293,    -0.00878,    +0.99186,   +0.11606,    +0.07453,    -0.00244,  -14.55800,   -54.63600,    +1.56600
   679991856,   -0.00439,    -0.00878,    +0.99772,   +0.11240,    +0.07575,    -0.00367,  -14.67400,   -54.28800,    +1.04400
   680003092,   -0.00732,    -0.00952,    +0.99625,   +0.11851,    +0.08186,    -0.00367,  -14.90600,   -54.81000,    +1.16000
   680014394,   -0.00586,    -0.01171,    +0.99040,   +0.11240,    +0.07330,    +0.00244,  -14.79000,   -54.52000,    +1.79800
   680025632,   -0.00805,    -0.01318,    +1.00138,   +0.11362,    +0.07941,    +0.00122,  -14.79000,   -54.52000,    +1.79800
   680036896,   +0.00073,    -0.00805,    +0.99186,   +0.11729,    +0.08063,    +0.00244,  -14.61600,   -54.63600,    +2.32000
   680048169,   +0.00220,    -0.01903,    +0.98674,   +0.11484,    +0.07330,    -0.00122,  -14.50000,   -54.81000,    +0.81200
   680059395,   -0.00220,    -0.01610,    +0.98893,   +0.10873,    +0.07697,    +0.00367,  -14.96400,   -54.75200,    +1.45000
   680070606,   -0.00366,    -0.00732,    +0.99845,   +0.11484,    +0.07819,    +0.00244,  -14.90600,   -55.10000,    +1.16000
   680081844,   +0.00220,    -0.01098,    +0.99918,   +0.11729,    +0.08063,    -0.00122,  -14.90600,   -54.75200,    +1.45000
   680093079,   -0.00293,    -0.00952,    +0.99479,   +0.11240,    +0.07575,    -0.00122,  -14.79000,   -54.40400,    +0.46400
   680104326,   -0.00220,    -0.00293,    +0.99259,   +0.11240,    +0.07575,    +0.00367,  -15.13800,   -54.69400,    +0.87000
   680115597,   -0.00293,    -0.00439,    +0.99772,   +0.10751,    +0.08186,    -0.00244,  -15.13800,   -54.69400,    +0.87000
   680126821,   -0.00512,    -0.01171,    +0.99259,   +0.11729,    +0.07941,    +0.00367,  -15.02200,   -54.92600,    +1.21800
   680138054,   -0.00073,    -0.00586,    +0.99259,   +0.11362,    +0.07453,    -0.00122,  -15.31200,   -55.21600,    +0.46400
   680149253,   +0.00073,    -0.01025,    +1.00064,   +0.10873,    +0.07575,    +0.00000,  -15.02200,   -54.86800,    +0.87000
   680160516,   -0.00073,    -0.00952,    +0.99991,   +0.11240,    +0.07208,    +0.00367,  -14.84800,   -54.23000,    +1.10200
   680171716,   -0.00073,    -0.00805,    +0.98966,   +0.11362,    +0.08063,    +0.00122,  -14.96400,   -55.21600,    +1.21800
   680182994,   -0.00146,    -0.01318,    +0.99845,   +0.11484,    +0.08430,    +0.00122,  -14.32600,   -54.86800,    +1.33400
   680194205,   -0.00366,    -0.00878,    +0.99406,   +0.12095,    +0.08552,    +0.00367,  -15.19600,   -55.27400,    +0.58000
   680205564,   -0.00220,    -0.00952,    +0.98966,   +0.11729,    +0.07697,    +0.00122,  -15.19600,   -55.27400,    +0.58000
   680216842,   +0.00220,    -0.01464,    +1.00138,   +0.11484,    +0.08430,    +0.00122,  -15.02200,   -54.98400,    +1.97200
   680228230,   +0.00073,    -0.01318,    +0.99259,   +0.11606,    +0.07453,    +0.00244,  -15.19600,   -54.75200,    +1.04400
   680239496,   +0.00073,    -0.00366,    +0.99479,   +0.11362,    +0.08186,    +0.00122,  -14.90600,   -54.92600,    +1.85600
   680250797,   +0.00073,    -0.01391,    +1.00430,   +0.11606,    +0.08063,    +0.00244,  -14.96400,   -54.69400,    +0.92800
   680262105,   +0.00000,    -0.01098,    +0.99332,   +0.11484,    +0.08063,    +0.00122,  -14.73200,   -54.52000,    +1.27600
   680273397,   +0.00659,    -0.00659,    +0.98674,   +0.11729,    +0.07697,    -0.00122,  -15.42800,   -55.04200,    +0.69600
   680284715,   +0.00073,    -0.00659,    +1.00211,   +0.11606,    +0.08308,    +0.00000,  -14.96400,   -54.63600,    +1.33400
   680295969,   +0.00146,    -0.00732,    +0.99845,   +0.11484,    +0.08063,    +0.00000,  -14.96400,   -54.63600,    +1.33400
   680307302,   -0.00512,    -0.01391,    +0.99332,   +0.10996,    +0.07575,    +0.00000,  -14.50000,   -55.04200,    +1.16000
   680318571,   +0.00220,    -0.00732,    +1.00577,   +0.11606,    +0.08308,    +0.00000,  -14.55800,   -54.81000,    +1.97200
   680329862,   -0.00293,    -0.01171,    +1.00284,   +0.11484,    +0.07697,    -0.00122,  -14.73200,   -54.81000,    +1.21800
   680341137,   -0.00439,    -0.00805,    +0.99845,   +0.11606,    +0.08186,    +0.00489,  -14.79000,   -54.69400,    +1.21800
   680352444,   -0.00366,    -0.00512,    +0.99845,   +0.10996,    +0.07453,    +0.00489,  -15.13800,   -54.63600,    +0.87000
   680363723,   -0.00146,    -0.01025,    +0.99918,   +0.11606,    +0.07941,    +0.00367,  -15.19600,   -54.86800,    +1.10200
   680375105,   +0.00220,    -0.00659,    +0.99040,   +0.11118,    +0.08308,    +0.00122,  -15.02200,   -54.57800,    +1.45000
   680386374,   -0.00366,    -0.01610,    +0.99040,   +0.11851,    +0.07819,    -0.00244,  -14.84800,   -54.92600,    +2.55200
   680397679,   -0.00732,    -0.00586,    +1.00211,   +0.10751,    +0.07086,    +0.00122,  -14.84800,   -54.92600,    +2.55200
   680408936,   -0.00293,    -0.00732,    +1.00650,   +0.11118,    +0.07330,    +0.00611,  -14.96400,   -54.57800,    +0.92800
   680420225,   -0.00220,    -0.01171,    +0.99698,   +0.11240,    +0.07697,    +0.00000,  -14.84800,   -54.75200,    +1.62400
   680431480,   -0.00732,    -0.00805,    +0.98966,   +0.11118,    +0.07819,    +0.00367,  -14.79000,   -54.92600,    +1.68200
   680442752,   -0.01098,    -0.01464,    +0.98893,   +0.11484,    +0.07819,    -0.00244,  -14.44200,   -55.33200,    +1.79800
   680454088,   +0.00146,    -0.00952,    +0.99698,   +0.10751,    +0.07819,    +0.00489,  -14.50000,   -55.39000,    +0.52200
   680465363,   -0.00366,    -0.01610,    +0.98747,   +0.11240,    +0.08552,    -0.00122,  -15.13800,   -54.69400,    +0.58000
   680476651,   -0.00220,    -0.01171,    +1.00211,   +0.11240,    +0.08063,    -0.00244,  -14.90600,   -55.04200,    +1.27600
   680487972,   -0.00146,    -0.01757,    +0.99406,   +0.10996,    +0.07697,    +0.00489,  -14.90600,   -55.04200,    +1.27600
   680499278,   -0.00146,    -0.01244,    +0.99259,   +0.11484,    +0.07819,    +0.00122,  -14.79000,   -54.98400,    +0.81200
   680510572,   +0.00439,    -0.00805,    +0.99772,   +0.11606,    +0.07330,    +0.00122,  -15.31200,   -54.69400,    +1.04400
   680521898,   +0.00293,    -0.00512,    +0.99552,   +0.11851,    +0.07453,    +0.00367,  -14.61600,   -55.27400,    +1.10200
   680533195,   -0.00293,    -0.01098,    +1.00577,   +0.11240,    +0.07697,    -0.00367,  -14.79000,   -55.04200,    +1.85600
   680544529,   -0.00293,    -0.01171,    +1.00064,   +0.10507,    +0.07453,    +0.00000,  -14.73200,   -55.21600,    +1.27600
   680555819,   -0.00220,    -0.00586,    +0.99332,   +0.11729,    +0.07086,    +0.00489,  -14.32600,   -55.15800,    +1.16000
   680567137,   -0.00659,    -0.00805,    +0.99845,   +0.11118,    +0.07941,    +0.00122,  -14.90600,   -54.98400,    +1.21800
   680578412,   -0.00659,    -0.01244,    +1.00138,   +0.11729,    +0.07697,    -0.00122,  -14.90600,   -54.98400,    +1.21800
   680589763,   -0.00512,    -0.01098,    +0.99332,   +0.11240,    +0.07697,    +0.00733,  -15.19600,   -54.81000,    +0.69600
   680601021,   +0.00512,    -0.01171,    +0.99186,   +0.11362,    +0.08186,    -0.00244,  -14.67400,   -55.21600,    +0.87000
   680612322,   +0.00293,    -0.01464,    +0.99625,   +0.11240,    +0.07819,    +0.00000,  -14.84800,   -55.21600,    +0.23200
   680623598,   -0.00366,    -0.00659,    +0.99918,   +0.10263,    +0.07575,    -0.00122,  -15.19600,   -54.75200,    +1.04400
   680634919,   +0.00146,    -0.00732,    +0.99479,   +0.10996,    +0.07575,    +0.00367,  -15.08000,   -54.69400,    +1.10200
   680646291,   -0.00439,    -0.00512,    +0.99479,   +0.11484,    +0.07941,    +0.00122,  -14.55800,   -54.92600,    +1.21800
   680657580,   -0.00293,    -0.00952,    +0.98674,   +0.11729,    +0.07819,    -0.00122,  -14.79000,   -54.98400,    +1.33400
   680668835,   +0.00146,    -0.00732,    +0.98893,   +0.10873,    +0.07941,    +0.00000,  -15.31200,   -55.39000,    +1.16000
   680680150,   +0.00000,    -0.01171,    +1.00430,   +0.11240,    +0.08063,    +0.00000,  -15.31200,   -55.39000,    +1.16000
   680691413,   +0.00146,    -0.01098,    +0.98820,   +0.10751,    +0.07941,    +0.00367,  -14.84800,   -55.10000,    +1.27600
   680702724,   -0.00146,    -0.01244,    +0.99918,   +0.11118,    +0.07575,    +0.00000,  -15.25400,   -54.52000,    +1.91400
   680713987,   -0.00073,    -0.01757,    +0.99406,   +0.11118,    +0.07453,    +0.00000,  -14.79000,   -54.98400,    +1.50800
   680725287,   +0.18373,    -0.00659,    +0.98674,   +0.11362,    +0.07819,    +0.00000,  -14.44200,   -55.21600,    +0.87000
   680736556,   +0.00146,    -0.00805,    +0.99259,   +0.11484,    +0.07819,    +0.00244,  -14.96400,   -55.15800,    +0.58000
   680747890,   -0.00073,    -0.00512,    +0.98747,   +0.11973,    +0.07697,    -0.00122,  -14.90600,   -54.86800,    +1.91400
   680759157,   -0.00293,    -0.01537,    +0.99918,   +0.11240,    +0.07819,    +0.00244,  -14.84800,   -55.68000,    +1.68200
   680770450,   -0.00073,    -0.01025,    +0.99406,   +0.10873,    +0.07819,    -0.00367,  -14.84800,   -55.68000,    +1.68200
   680781720,   +0.00073,    -0.00732,    +0.99625,   +0.11362,    +0.07086,    -0.00367,  -15.13800,   -54.81000,    +1.56600
   680793042,   +0.00073,    -0.00952,    +0.99772,   +0.11851,    +0.07819,    +0.00122,  -15.25400,   -54.69400,    +1.91400
   680804393,   -0.00293,    -0.00439,    +0.99259,   +0.11362,    +0.07330,    +0.00367,  -14.67400,   -54.81000,    +0.87000
   680815674,   -0.00586,    -0.01025,    +0.99625,   +0.10873,    +0.07819,    +0.00489,  -15.08000,   -54.34600,    +1.45000
   680826966,   -0.00659,    -0.00952,    +1.00211,   +0.11484,    +0.08063,    -0.00367,  -14.61600,   -54.28800,    +1.91400
   680838266,   -0.00878,    -0.01757,    +0.98966,   +0.10629,    +0.07575,    +0.00244,  -14.44200,   -54.69400,    +1.04400
   680849613,   +0.00000,    -0.00952,    +0.99406,   +0.11118,    +0.07575,    +0.00122,  -14.84800,   -54.75200,    +1.45000
   680860878,   +0.00293,    -0.00805,    +0.98893,   +0.10751,    +0.07941,    +0.00122,  -14.84800,   -54.75200,    +1.45000
   680872190,   -0.00073,    -0.01025,    +0.99845,   +0.11240,    +0.07330,    +0.00244,  -14.67400,   -54.98400,    +1.33400
   680883452,   -0.00366,    -0.01098,    +0.99772,   +0.10507,    +0.07819,    -0.00122,  -14.90600,   -54.92600,    +1.39200
   680894835,   -0.00293,    -0.00659,    +0.99332,   +0.10873,    +0.07819,    +0.00244,  -14.96400,   -54.75200,    +1.16000
   680906104,   +0.00146,    -0.00366,    +0.98747,   +0.10751,    +0.08186,    +0.00122,  -15.19600,   -54.86800,    +0.46400
   680917397,   -0.00439,    -0.01098,    +0.99625,   +0.10751,    +0.07086,    +0.00244,  -14.50000,   -54.46200,    +1.97200
   680928652,   +0.00000,    -0.01318,    +0.99479,   +0.10873,    +0.07941,    +0.00000,  -15.02200,   -54.69400,    +1.62400
   680939960,   -0.00952,    -0.00952,    +1.00430,   +0.10996,    +0.07208,    -0.00122,  -14.67400,   -55.10000,    +1.33400
   680951215,   +0.00146,    -0.01171,    +0.98966,   +0.11484,    +0.07208,    +0.00244,  -14.67400,   -55.10000,    +1.33400
   680972656,   -0.00366,    -0.01025,    +0.99552,   +0.11851,    +0.07453,    +0.00122,  -14.55800,   -54.05600,    +1.68200
   680983947,   +0.00073,    -0.00952,    +0.99113,   +0.11362,    +0.07819,    +0.00000,  -15.02200,   -55.21600,    +1.45000
   680995252,   +0.00146,    -0.00659,    +0.99479,   +0.10996,    +0.07086,    -0.00122,  -14.32600,   -54.52000,    +1.33400
   681006526,   -0.00659,    -0.00878,    +0.99040,   +0.11118,    +0.07575,    -0.00367,  -14.79000,   -54.86800,    +0.40600
   681017828,   -0.00586,    -0.01098,    +0.99918,   +0.10751,    +0.07819,    +0.00244,  -14.90600,   -55.44800,    +1.33400
   681029083,   -0.00439,    -0.00878,    +0.98966,   +0.10629,    +0.08063,    -0.00122,  -14.44200,   -54.86800,    +0.75400
   681040354,   +0.00146,    -0.01244,    +0.99113,   +0.11240,    +0.07575,    +0.00000,  -14.44200,   -54.86800,    +0.75400
   681051646,   +0.00146,    -0.00659,    +0.99332,   +0.11729,    +0.07819,    -0.00122,  -14.96400,   -55.10000,    +1.27600
   681062925,   +0.00366,    -0.01318,    +0.99259,   +0.11240,    +0.07453,    -0.00122,  -14.44200,   -55.33200,    +1.10200
   681074238,   -0.00439,    -0.00439,    +0.99479,   +0.11240,    +0.07941,    -0.00367,  -15.02200,   -54.92600,    +1.04400
   681085510,   -0.00146,    -0.00805,    +0.99186,   +0.11240,    +0.07697,    -0.00122,  -14.26800,   -54.40400,    +1.97200
   681096805,   -0.00439,    -0.00732,    +0.98893,   +0.11606,    +0.08063,    +0.00000,  -14.44200,   -55.68000,    +0.46400
   681108111,   +0.00000,    -0.00659,    +0.99625,   +0.11240,    +0.08308,    +0.00244,  -14.32600,   -55.27400,    +0.29000
   681119398,   -0.00952,    -0.00805,    +0.98747,   +0.11606,    +0.08308,    +0.00367,  -14.67400,   -54.81000,    +1.21800
   681130667,   +0.00512,    -0.00878,    +0.99698,   +0.11973,    +0.07453,    +0.00122,  -14.67400,   -54.81000,    +1.21800
   681141992,   -0.00512,    -0.00805,    +0.99332,   +0.11240,    +0.08308,    +0.00244,  -14.38400,   -54.69400,    +1.62400
   681153286,   +0.00146,    -0.00512,    +0.99040,   +0.11973,    +0.08186,    +0.00000,  -14.73200,   -54.69400,    +1.04400
   681164679,   -0.00366,    -0.00805,    +0.98747,   +0.11729,    +0.07941,    +0.00244,  -15.31200,   -54.46200,    +1.39200
   681175935,   -0.00439,    -0.00805,    +0.99259,   +0.11484,    +0.08063,    +0.00122,  -14.55800,   -54.57800,    +0.98600
   681187260,   -0.00586,    -0.00512,    +1.00211,   +0.11362,    +0.07330,    +0.00122,  -15.19600,   -55.10000,    +0.87000
   681198516,   -0.00146,    -0.00512,    +1.00064,   +0.11118,    +0.07697,    +0.00000,  -14.73200,   -54.63600,    +2.14600
   681209787,   -0.00146,    -0.00732,    +1.00211,   +0.10873,    +0.08063,    +0.00244,  -14.55800,   -55.04200,    +1.74000
   681221041,   -0.00586,    -0.00586,    +0.99991,   +0.10629,    +0.07819,    +0.00244,  -14.84800,   -55.04200,    +0.46400
   681232332,   -0.00293,    -0.00878,    +1.00284,   +0.11240,    +0.07941,    +0.00000,  -14.84800,   -54.92600,    +0.46400
   681243605,   +0.00000,    -0.00293,    +0.98454,   +0.11484,    +0.08430,    +0.00244,  -15.19600,   -54.98400,    +1.33400
   681255187,   +0.00220,    -0.01318,    +0.99625,   +0.11118,    +0.07575,    -0.00122,  -14.96400,   -54.98400,    +0.63800
   681266489,   -0.00220,    -0.01098,    +0.99113,   +0.11118,    +0.07819,    +0.00122,  -15.02200,   -54.28800,    +0.98600
   681277808,   -0.00586,    -0.00512,    +0.99186,   +0.11240,    +0.07330,    +0.00244,  -14.67400,   -54.34600,    +0.69600
   681289082,   +0.00146,    -0.00586,    +0.99406,   +0.11240,    +0.07819,    +0.00000,  -14.32600,   -54.75200,    +1.33400
   681300355,   +0.00000,    -0.00659,    +0.99259,   +0.11362,    +0.07819,    +0.00000,  -14.96400,   -54.40400,    +1.10200
   681311614,   -0.00512,    -0.00586,    +0.99406,   +0.10873,    +0.07941,    +0.00489,  -14.55800,   -54.63600,    +0.92800
   681322903,   -0.00146,    -0.00805,    +0.99259,   +0.11362,    +0.08308,    +0.00367,  -14.55800,   -54.63600,    +0.92800
   681334293,   +0.00512,    -0.00952,    +0.98966,   +0.11240,    +0.08308,    +0.00489,  -14.73200,   -54.63600,    +0.75400
   681345561,   +0.00146,    -0.01025,    +0.99625,   +0.10629,    +0.07819,    +0.00244,  -14.79000,   -54.75200,    -0.05800
   681356858,   -0.00146,    -0.01025,    +0.99406,   +0.11606,    +0.07819,    +0.00122,  -14.84800,   -54.57800,    +0.75400
   681368167,   -0.00512,    -0.01171,    +0.99552,   +0.10629,    +0.07208,    -0.00122,  -14.15200,   -54.28800,    +1.27600
   681379452,   +0.00146,    -0.00732,    +0.99259,   +0.12095,    +0.08308,    +0.00367,  -14.09400,   -54.69400,    +0.81200
   681390801,   +0.00146,    -0.01171,    +0.99406,   +0.10873,    +0.07697,    -0.00244,  -14.38400,   -54.81000,    +1.16000
   681402123,   +0.00366,    -0.01903,    +0.99918,   +0.11606,    +0.07330,    +0.00489,  -14.26800,   -54.81000,    +0.29000
   681413414,   +0.00000,    -0.00952,    +0.99186,   +0.11118,    +0.07453,    +0.00000,  -14.26800,   -54.81000,    +0.29000
   681424722,   +0.00220,    -0.00293,    +0.99991,   +0.11118,    +0.08552,    +0.00244,  -14.32600,   -54.46200,    +1.10200
   681435977,   +0.00000,    -0.00512,    +0.99918,   +0.10996,    +0.07697,    +0.00244,  -15.08000,   -55.10000,    +0.69600
   681447259,   -0.00293,    -0.00732,    +1.00357,   +0.10873,    +0.07819,    +0.00122,  -14.96400,   -54.46200,    +0.40600
   681458540,   +0.00293,    -0.00805,    +0.99991,   +0.10996,    +0.07697,    -0.00122,  -15.13800,   -55.10000,    +1.21800
   681469865,   -0.00293,    -0.01244,    +0.99552,   +0.11606,    +0.07941,    +0.00122,  -15.13800,   -54.46200,    +0.17400
   681481135,   +0.00000,    -0.00878,    +0.99259,   +0.11606,    +0.07941,    -0.00244,  -14.79000,   -54.75200,    +0.11600
   681492452,   +0.00146,    -0.00732,    +0.99698,   +0.11484,    +0.07819,    +0.00122,  -14.61600,   -54.69400,    +1.33400
   681503738,   -0.00073,    -0.01171,    +1.00357,   +0.10507,    +0.07941,    +0.00122,  -15.02200,   -54.75200,    +0.52200
   683980041,   -0.00073,    -0.01537,    +0.99186,   +0.10734,    +0.08063,    +0.00244,  -14.84800,   -54.63600,    +0.92800
   683991308,   +0.00000,    -0.00732,    +0.99259,   +0.11467,    +0.07575,    +0.00244,  -14.61600,   -54.98400,    +1.04400
   684002583,   -0.00586,    -0.00659,    +0.99845,   +0.11589,    +0.07819,    +0.00122,  -14.90600,   -54.86800,    +0.63800
   684013802,   +0.00073,    -0.00952,    +0.98820,   +0.10490,    +0.07941,    +0.00122,  -14.61600,   -54.57800,    +0.87000
   684025164,   +0.00073,    -0.01318,    +0.99698,   +0.10490,    +0.07330,    -0.00122,  -14.32600,   -54.69400,    +0.58000
   684036403,   -0.00732,    -0.01318,    +1.00357,   +0.10612,    +0.07575,    +0.00489,  -14.55800,   -54.86800,    +0.75400
   684047675,   +0.00000,    -0.00732,    +0.98600,   +0.11101,    +0.08063,    +0.00489,  -14.73200,   -54.69400,    +1.16000
   684058876,   -0.00952,    -0.01391,    +0.99332,   +0.11589,    +0.07697,    -0.00367,  -14.73200,   -54.69400,    +1.16000
   684070146,   -0.00659,    -0.01244,    +0.99113,   +0.10367,    +0.07330,    +0.00000,  -14.50000,   -54.75200,    +1.27600
   684081353,   -0.00220,    -0.00512,    +1.00138,   +0.11589,    +0.07819,    -0.00122,  -14.32600,   -54.57800,    +1.21800
   684092632,   -0.00146,    -0.00220,    +0.99406,   +0.10856,    +0.07453,    -0.00244,  -14.50000,   -54.86800,    +1.10200
   684103930,   -0.00366,    -0.01171,    +0.99552,   +0.10856,    +0.07697,    +0.00000,  -14.73200,   -54.98400,    +1.10200
   684115255,   +0.00146,    -0.00366,    +0.99991,   +0.10612,    +0.07575,    +0.00122,  -14.61600,   -54.46200,    +1.79800
   684126537,   +0.00000,    -0.01391,    +0.99406,   +0.11223,    +0.08186,    +0.00000,  -14.50000,   -54.86800,    +1.62400
   684137822,   +0.00000,    -0.00586,    +0.99332,   +0.11589,    +0.07819,    +0.00244,  -14.55800,   -55.27400,    +1.97200
   684149081,   -0.00805,    -0.01098,    +0.99625,   +0.11223,    +0.07697,    -0.00244,  -14.55800,   -55.27400,    +1.97200
   684160490,   -0.00439,    -0.01464,    +0.99332,   +0.11101,    +0.07330,    +0.00000,  -14.50000,   -54.86800,    +0.92800
   684171745,   +0.00220,    -0.00512,    +0.99918,   +0.11101,    +0.07819,    +0.00000,  -14.73200,   -55.10000,    +1.68200
   684183041,   +0.00293,    -0.01610,    +0.98820,   +0.10978,    +0.07697,    +0.00122,  -13.92000,   -55.04200,    +1.79800
   684194354,   -0.01318,    -0.00586,    +1.00284,   +0.10856,    +0.07697,    +0.00122,  -14.55800,   -54.75200,    +1.10200
   684205612,   -0.01610,    -0.01025,    +0.99625,   +0.10856,    +0.07819,    +0.00122,  -14.61600,   -54.86800,    +1.68200
   684216879,   -0.00073,    -0.00878,    +0.99332,   +0.10734,    +0.07575,    +0.00367,  -14.55800,   -54.75200,    +1.79800
   684228173,   +0.00439,    -0.01098,    +0.99113,   +0.11467,    +0.08186,    -0.00244,  -13.92000,   -55.56400,    +1.56600
   684239462,   +0.00220,    -0.00805,    +0.99040,   +0.11711,    +0.07941,    -0.00367,  -13.92000,   -55.56400,    +1.56600
   684250738,   -0.00220,    -0.01610,    +0.99406,   +0.10490,    +0.07453,    +0.00611,  -15.13800,   -54.98400,    +1.10200
   684262056,   -0.00220,    -0.00952,    +0.98747,   +0.11223,    +0.07453,    +0.00489,  -14.67400,   -54.81000,    +1.16000
   684273312,   -0.00073,    -0.01464,    +0.99625,   +0.11223,    +0.07453,    -0.00367,  -14.61600,   -54.63600,    +0.75400
   684284824,   -0.00659,    -0.00878,    +1.00211,   +0.11345,    +0.07697,    +0.00122,  -14.61600,   -54.28800,    +1.21800
   684296082,   +0.00073,    -0.02050,    +0.99698,   +0.11345,    +0.07819,    -0.00122,  -14.73200,   -54.63600,    +1.33400
   684307391,   +0.00073,    -0.01537,    +0.99259,   +0.10734,    +0.07697,    +0.00244,  -14.84800,   -54.23000,    +0.81200
   684318657,   -0.00146,    -0.00293,    +0.99625,   +0.11467,    +0.08063,    +0.00611,  -14.73200,   -54.69400,    +1.21800
   684329972,   -0.00732,    -0.01318,    +0.99113,   +0.11101,    +0.07819,    +0.00367,  -14.79000,   -55.21600,    +1.21800
   684341230,   +0.00000,    -0.00805,    +0.99991,   +0.11345,    +0.07941,    +0.00122,  -14.79000,   -55.21600,    +1.21800
   684352523,   -0.00293,    -0.01098,    +0.99918,   +0.10978,    +0.07819,    +0.00122,  -14.50000,   -55.33200,    +0.63800
   684363784,   -0.00586,    -0.00732,    +0.99332,   +0.11223,    +0.07941,    -0.00122,  -15.02200,   -55.50600,    +1.33400
   684375103,   +0.18373,    -0.01244,    +0.99625,   +0.10856,    +0.07697,    +0.00122,  -15.42800,   -55.27400,    +0.46400
   684386368,   -0.00805,    -0.01757,    +1.00211,   +0.10978,    +0.07697,    +0.00000,  -14.55800,   -55.73800,    +1.27600
   684397692,   +0.00000,    -0.00659,    +0.99406,   +0.10734,    +0.07819,    -0.00122,  -14.67400,   -55.33200,    +0.87000
   684408949,   -0.00073,    -0.00805,    +0.99113,   +0.11223,    +0.07330,    +0.00000,  -14.61600,   -55.27400,    +1.10200
   684420239,   -0.00293,    -0.00878,    +0.99845,   +0.10856,    +0.07330,    +0.00000,  -14.90600,   -54.75200,    +1.33400
   684431494,   -0.00073,    -0.01171,    +0.99479,   +0.11345,    +0.08063,    +0.00367,  -14.90600,   -54.75200,    +1.33400
   684442766,   -0.00146,    -0.00366,    +0.99698,   +0.10734,    +0.07453,    +0.00367,  -14.73200,   -54.75200,    +1.04400
   684454099,   +0.00146,    -0.00732,    +0.99406,   +0.10978,    +0.07330,    +0.00489,  -14.79000,   -54.75200,    +0.75400
   684465376,   -0.00146,    -0.01098,    +0.99186,   +0.11345,    +0.08186,    +0.00489,  -14.84800,   -54.63600,    +0.34800
   684476653,   -0.00220,    -0.00512,    +0.99113,   +0.11101,    +0.07453,    +0.00122,  -15.37000,   -54.46200,    +0.63800
   684487985,   -0.00366,    -0.00952,    +0.99406,   +0.11101,    +0.07941,    +0.00000,  -14.79000,   -54.46200,    +1.04400
   684499286,   +0.00000,    -0.01244,    +0.98747,   +0.10856,    +0.07453,    -0.00122,  -14.96400,   -54.28800,    +1.39200
   684510584,   +0.00073,    -0.01318,    +0.99479,   +0.11223,    +0.07819,    +0.00122,  -14.96400,   -54.69400,    +0.52200
   684521980,   -0.00878,    -0.00659,    +0.99991,   +0.10978,    +0.07941,    +0.00367,  -14.96400,   -54.69400,    +0.52200
   684533269,   -0.00220,    -0.01537,    +0.99625,   +0.11467,    +0.07819,    +0.00244,  -15.13800,   -55.10000,    +0.23200
   684544590,   +0.00146,    -0.01464,    +0.99552,   +0.11589,    +0.07819,    +0.00122,  -14.96400,   -54.57800,    +1.21800
   684555866,   -0.00366,    -0.01684,    +1.00577,   +0.11345,    +0.07941,    +0.00244,  -15.37000,   -54.81000,    +0.63800
   684567196,   -0.00366,    -0.00366,    +0.99259,   +0.10856,    +0.07819,    +0.00122,  -14.73200,   -54.40400,    -0.11600
   684578466,   +0.00293,    -0.01244,    +0.99991,   +0.11223,    +0.07575,    +0.00000,  -14.61600,   -54.57800,    -0.05800
   684589757,   -0.00512,    -0.00732,    +0.99625,   +0.10856,    +0.08063,    +0.00367,  -14.79000,   -54.34600,    +0.58000
   684601014,   +0.00439,    -0.01025,    +0.98527,   +0.11589,    +0.08430,    +0.00000,  -15.13800,   -54.40400,    +1.27600
   684612339,   -0.00586,    -0.00439,    +0.99479,   +0.11223,    +0.07575,    +0.00244,  -15.13800,   -54.40400,    +1.27600
   684623601,   -0.00073,    -0.00732,    +0.99479,   +0.11101,    +0.08063,    +0.00122,  -15.37000,   -54.05600,    +1.04400
   684634940,   -0.00878,    -0.00878,    +0.99406,   +0.11467,    +0.08186,    +0.00244,  -15.48600,   -54.98400,    +0.87000
   684646272,   +0.00146,    -0.00512,    +0.99552,   +0.11467,    +0.08063,    +0.00367,  -14.73200,   -54.86800,    +0.87000
   684657608,   -0.00146,    -0.00732,    +0.99406,   +0.10978,    +0.08186,    +0.00000,  -14.96400,   -54.40400,    +1.33400
   684668862,   +0.00073,    -0.00512,    +0.99332,   +0.11223,    +0.07575,    +0.00244,  -14.90600,   -54.98400,    +0.46400
   684680161,   +0.00293,    -0.01391,    +0.99625,   +0.10612,    +0.07697,    +0.00122,  -14.55800,   -55.04200,    -0.11600
   684691418,   -0.00293,    -0.01171,    +0.99625,   +0.11101,    +0.07697,    -0.00244,  -14.96400,   -54.52000,    +1.04400
   684702740,   +0.00220,    -0.00220,    +0.99259,   +0.11834,    +0.08552,    +0.00000,  -15.19600,   -54.57800,    +1.27600
   684714047,   -0.00146,    -0.00586,    +0.99113,   +0.11345,    +0.08063,    +0.00122,  -15.19600,   -54.57800,    +1.27600
   684725331,   +0.00146,    -0.01171,    +0.99698,   +0.11345,    +0.07697,    +0.00367,  -15.19600,   -54.75200,    +1.85600
   684736621,   -0.00732,    -0.00732,    +0.99918,   +0.11223,    +0.07575,    +0.00000,  -15.13800,   -54.92600,    +1.39200
   684747931,   -0.00439,    -0.00586,    +0.99772,   +0.11345,    +0.07697,    -0.00122,  -14.84800,   -54.52000,    +1.85600
   684759253,   -0.00512,    -0.00732,    +1.00284,   +0.11467,    +0.07575,    +0.00000,  -14.84800,   -54.81000,    +1.33400
   684770561,   -0.00366,    -0.00805,    +0.99845,   +0.10612,    +0.07330,    +0.00244,  -14.96400,   -53.99800,    +0.87000
   684781874,   -0.01171,    -0.01098,    +0.99113,   +0.10612,    +0.07697,    +0.00000,  -14.50000,   -54.28800,    +0.46400
   684793149,   -0.00732,    -0.01025,    +0.99259,   +0.11345,    +0.07575,    +0.00000,  -14.79000,   -54.57800,    +0.87000
   684804423,   -0.00512,    -0.01757,    +0.99698,   +0.11223,    +0.07575,    +0.00000,  -14.79000,   -54.57800,    +0.87000
   684815686,   -0.00805,    -0.00952,    +0.99552,   +0.10612,    +0.07819,    +0.00244,  -14.79000,   -54.28800,    +1.56600
   684827006,   -0.00293,    -0.00586,    +0.98747,   +0.10978,    +0.08186,    +0.00244,  -15.02200,   -55.15800,    +0.46400
   684838294,   -0.00512,    -0.01464,    +0.98893,   +0.10856,    +0.07575,    +0.00244,  -14.09400,   -54.98400,    +0.29000
   684849595,   -0.00366,    -0.00878,    +0.99113,   +0.11345,    +0.08430,    +0.00122,  -14.73200,   -54.69400,    +0.92800
   684860883,   -0.00073,    -0.00878,    +0.99479,   +0.11711,    +0.07697,    +0.00000,  -15.25400,   -54.81000,    +0.81200
   684872193,   -0.00073,    -0.01610,    +0.98966,   +0.11345,    +0.07941,    +0.00000,  -14.79000,   -54.57800,    +0.52200
   684883482,   +0.00000,    -0.01098,    +0.99625,   +0.11101,    +0.07941,    +0.00122,  -14.90600,   -54.17200,    +1.16000
   684894904,   +0.00073,    -0.01244,    +0.99113,   +0.11834,    +0.07453,    +0.00122,  -14.90600,   -54.17200,    +1.16000
   684906192,   -0.00146,    -0.00220,    +0.99113,   +0.11467,    +0.07819,    +0.00367,  -14.84800,   -54.11400,    +0.92800
   684917112,   +0.00220,    -0.00732,    +0.99625,   +0.10978,    +0.07941,    +0.00000,  -15.19600,   -54.69400,    +0.46400
   684928005,   +0.00220,    -0.01098,    +0.99259,   +0.10978,    +0.07819,    +0.00122,  -14.96400,   -54.98400,    +1.21800
   684938899,   -0.00512,    -0.00878,    +0.98747,   +0.11589,    +0.07453,    +0.00122,  -15.08000,   -54.75200,    +0.58000
   684949811,   +0.00220,    -0.01537,    +0.99991,   +0.11834,    +0.07941,    +0.00000,  -14.79000,   -54.98400,    +0.92800
   684960705,   -0.00805,    -0.01830,    +0.98966,   +0.11589,    +0.07941,    +0.00122,  -14.61600,   -54.17200,    +1.04400
   684971595,   +0.00073,    -0.01684,    +0.99625,   +0.11711,    +0.08308,    -0.00122,  -14.61600,   -54.17200,    +1.04400
   684982527,   +0.00293,    -0.00878,    +0.99625,   +0.10856,    +0.07941,    +0.00489,  -15.13800,   -54.92600,    +1.45000
   684993404,   +0.00000,    -0.00805,    +0.98820,   +0.10734,    +0.07575,    -0.00367,  -14.73200,   -54.52000,    +1.79800
   685004305,   -0.00073,    -0.00732,    +0.99479,   +0.11223,    +0.08186,    +0.00244,  -14.44200,   -54.75200,    +1.10200
   685015571,   -0.00220,    -0.00732,    +0.99552,   +0.11467,    +0.08063,    +0.00000,  -14.67400,   -54.98400,    +1.74000
   685026881,   -0.00439,    -0.01171,    +0.98674,   +0.10856,    +0.08186,    +0.00000,  -14.90600,   -54.75200,    +1.50800
   685038174,   -0.00146,    -0.01318,    +0.99625,   +0.11101,    +0.08674,    +0.00122,  -14.84800,   -55.27400,    +1.10200
   685049448,   +0.00366,    -0.01244,    +0.99918,   +0.11467,    +0.07941,    +0.00244,  -14.90600,   -55.15800,    +1.21800
   685060765,   -0.00293,    -0.01098,    +0.99040,   +0.11834,    +0.07819,    +0.00000,  -14.90600,   -55.15800,    +1.21800
   685072041,   +0.00366,    -0.00732,    +1.00430,   +0.12322,    +0.07697,    -0.00122,  -14.55800,   -54.17200,    +1.74000
   685083362,   -0.00659,    -0.01171,    +0.98893,   +0.11467,    +0.08063,    -0.00122,  -14.55800,   -54.81000,    +0.63800
   685094701,   +0.00146,    -0.01098,    +0.98747,   +0.11223,    +0.08186,    +0.00122,  -14.79000,   -55.21600,    +1.04400
   685106016,   +0.00146,    -0.01244,    +0.99698,   +0.10734,    +0.07208,    +0.00122,  -14.90600,   -54.81000,    +0.34800
   685117295,   -0.00659,    -0.01025,    +0.99479,   +0.10856,    +0.06964,    +0.00367,  -15.19600,   -55.21600,    +1.68200
   685128555,   -0.00146,    -0.00293,    +0.99698,   +0.10734,    +0.07819,    +0.00122,  -15.19600,   -54.92600,    +1.16000
   685139842,   -0.00220,    -0.01244,    +0.99332,   +0.10734,    +0.07941,    -0.00122,  -14.67400,   -55.04200,    +1.27600
   685151149,   +0.00146,    -0.01244,    +0.98381,   +0.11345,    +0.07819,    -0.00244,  -14.67400,   -55.04200,    +1.27600
   685162404,   -0.00805,    -0.00659,    +0.99845,   +0.11467,    +0.07575,    -0.00244,  -14.67400,   -55.33200,    +0.40600
   685173716,   -0.00586,    -0.00805,    +0.99845,   +0.10367,    +0.07575,    +0.00244,  -14.90600,   -55.10000,    +0.75400
   685185048,   +0.00293,    -0.00732,    +0.99552,   +0.11101,    +0.07697,    -0.00244,  -15.08000,   -55.15800,    +0.69600
   685196357,   -0.00293,    -0.01025,    +0.98674,   +0.10978,    +0.08186,    +0.00244,  -14.21000,   -55.15800,    +1.04400
   685207641,   -0.01391,    -0.02050,    +0.99479,   +0.11101,    +0.07697,    +0.00122,  -14.73200,   -54.81000,    +1.04400
   685218957,   +0.00073,    -0.00439,    +0.99332,   +0.10978,    +0.08308,    +0.00000,  -14.32600,   -54.69400,    +0.98600
   685230250,   -0.00073,    -0.01098,    +0.99845,   +0.11467,    +0.07819,    +0.00122,  -14.61600,   -54.98400,    +0.75400
   685241567,   -0.00805,    -0.00512,    +0.98381,   +0.10856,    +0.08063,    -0.00122,  -14.61600,   -54.98400,    +0.75400
   685252890,   -0.00293,    -0.00659,    +0.99479,   +0.12200,    +0.07819,    +0.00122,  -14.38400,   -54.69400,    +0.46400
   685264253,   +0.00439,    -0.01391,    +1.00064,   +0.10978,    +0.07575,    +0.00489,  -14.61600,   -54.81000,    +1.85600
   685275573,   +0.00293,    -0.00878,    +0.98527,   +0.10490,    +0.07697,    -0.00244,  -14.84800,   -54.86800,    +1.10200
   685286843,   +0.00073,    -0.00878,    +1.00064,   +0.10490,    +0.07819,    +0.00122,  -14.61600,   -55.79600,    +0.92800
   685298161,   +0.00220,    -0.00659,    +0.99772,   +0.11834,    +0.07941,    -0.00244,  -14.84800,   -55.39000,    +1.39200
   685309435,   -0.00293,    -0.00586,    +0.98600,   +0.10490,    +0.07697,    +0.00122,  -14.61600,   -55.21600,    +0.69600
   685320757,   +0.00293,    -0.00805,    +0.99698,   +0.11467,    +0.07453,    +0.00000,  -14.84800,   -55.79600,    +1.16000
   685332032,   -0.00146,    -0.00952,    +0.99040,   +0.11345,    +0.07941,    +0.00367,  -14.67400,   -54.69400,    +1.62400
   685343352,   +0.00073,    -0.00732,    +0.99918,   +0.10734,    +0.07697,    +0.00122,  -14.67400,   -54.69400,    +1.62400
   685354672,   -0.00220,    -0.01098,    +0.99625,   +0.11101,    +0.07453,    +0.00122,  -14.61600,   -54.98400,    +1.45000
   685365999,   -0.00586,    -0.00732,    +0.99259,   +0.11345,    +0.07330,    +0.00489,  -14.26800,   -54.86800,    +0.98600
   685377272,   -0.01098,    -0.00952,    +0.99332,   +0.11101,    +0.07941,    -0.00367,  -15.08000,   -55.10000,    +1.50800
   685388531,   -0.00366,    -0.00293,    +0.99552,   +0.10856,    +0.07697,    +0.00244,  -15.08000,   -55.21600,    +1.62400
   685399833,   -0.00439,    -0.01244,    +0.99698,   +0.11101,    +0.07819,    -0.00122,  -14.84800,   -54.86800,    +2.32000
   685411119,   -0.00146,    -0.01537,    +0.99479,   +0.11223,    +0.07941,    +0.00489,  -15.02200,   -54.69400,    +1.33400
   685422359,   -0.00073,    -0.01244,    +0.98820,   +0.10612,    +0.07575,    -0.00244,  -14.50000,   -54.75200,    +1.39200
   685433653,   +0.00000,    -0.00659,    +0.98747,   +0.10978,    +0.08186,    +0.00000,  -14.50000,   -54.75200,    +1.39200
   685444957,   +0.18154,    -0.00293,    +1.00430,   +0.11711,    +0.07575,    -0.00122,  -14.96400,   -54.92600,    +0.52200
   685456166,   -0.00659,    -0.01610,    +0.99772,   +0.11101,    +0.07819,    +0.00244,  -15.02200,   -55.33200,    +1.62400
   685467479,   -0.00146,    -0.01464,    +0.99113,   +0.11223,    +0.07819,    +0.00244,  -14.84800,   -55.44800,    +0.29000
   685478729,   -0.00146,    -0.00439,    +0.99479,   +0.11223,    +0.07819,    -0.00122,  -14.44200,   -54.52000,    +1.04400
   685489985,   -0.00659,    -0.00366,    +0.99918,   +0.10856,    +0.07208,    -0.00122,  -14.96400,   -55.15800,    +0.92800
   685501220,   -0.00073,    -0.00805,    +1.00138,   +0.11834,    +0.08308,    +0.00367,  -14.79000,   -55.04200,    +0.40600
   685512482,   +0.00439,    -0.01391,    +0.99113,   +0.10978,    +0.07819,    +0.00122,  -14.67400,   -55.15800,    +0.46400
   685523717,   -0.00220,    -0.01098,    +0.98966,   +0.10490,    +0.08186,    +0.00122,  -14.67400,   -55.15800,    +0.46400
   685535042,   +0.00073,    -0.00586,    +0.99991,   +0.11956,    +0.08063,    +0.00000,  -14.73200,   -55.39000,    +0.69600
   685546278,   -0.00366,    -0.01537,    +0.99772,   +0.11101,    +0.07330,    +0.00122,  -14.96400,   -55.27400,    +0.34800
   685557539,   +0.00073,    -0.01830,    +0.99772,   +0.10978,    +0.07941,    +0.00122,  -15.02200,   -55.44800,    +1.04400
   685568778,   +0.00000,    -0.01025,    +0.99479,   +0.11345,    +0.07941,    +0.00000,  -15.19600,   -55.62200,    +0.58000
   685580029,   +0.00000,    -0.00659,    +0.99113,   +0.10612,    +0.07819,    +0.00367,  -14.55800,   -55.50600,    +1.68200
   685591251,   +0.00220,    -0.01244,    +0.99845,   +0.10978,    +0.07819,    +0.00000,  -15.13800,   -54.81000,    +0.34800
   685602497,   -0.01025,    -0.00952,    +0.99772,   +0.10856,    +0.07819,    +0.00367,  -15.08000,   -55.39000,    +0.58000
   685613777,   +0.00000,    -0.00586,    +0.99845,   +0.11345,    +0.07575,    +0.00244,  -15.08000,   -55.39000,    +0.58000
   685625062,   +0.00000,    -0.00586,    +0.99772,   +0.10978,    +0.07819,    +0.00122,  -15.13800,   -54.81000,    +1.27600
   685636270,   -0.00073,    -0.00878,    +0.98820,   +0.11345,    +0.07330,    -0.00244,  -14.84800,   -54.81000,    +1.85600
   685647525,   +0.00000,    -0.00659,    +0.99552,   +0.10856,    +0.07453,    +0.00122,  -14.61600,   -55.04200,    +1.04400
   685658785,   +0.00073,    -0.01025,    +0.99991,   +0.11956,    +0.08430,    -0.00244,  -14.96400,   -55.04200,    +1.74000
   685670020,   -0.00220,    -0.01171,    +0.99918,   +0.11345,    +0.07941,    +0.00122,  -15.08000,   -55.68000,    +1.74000
   685681289,   -0.00659,    -0.01171,    +0.99552,   +0.11101,    +0.07575,    +0.00244,  -14.55800,   -54.92600,    +1.39200
   685692518,   -0.00073,    -0.00732,    +0.99698,   +0.10856,    +0.08308,    +0.00122,  -14.09400,   -55.10000,    +1.68200
   685703789,   -0.00073,    -0.00952,    +0.99332,   +0.11345,    +0.07697,    +0.00000,  -14.09400,   -55.10000,    +1.68200
   685715035,   -0.00366,    -0.00659,    +0.99113,   +0.10978,    +0.07697,    +0.00244,  -14.15200,   -55.21600,    +1.45000
   685726313,   -0.00512,    -0.00805,    +0.99845,   +0.11467,    +0.07575,    -0.00244,  -14.55800,   -55.56400,    +1.91400
   685737545,   -0.00366,    -0.01098,    +0.99845,   +0.10734,    +0.07330,    +0.00367,  -14.44200,   -55.33200,    +1.85600
   685748754,   -0.00439,    -0.00805,    +0.99406,   +0.11345,    +0.08063,    +0.00122,  -14.32600,   -55.39000,    +1.62400
   685759990,   -0.00366,    -0.00732,    +0.99040,   +0.11223,    +0.08063,    +0.00122,  -14.44200,   -55.50600,    +0.46400
   685771225,   -0.00073,    -0.00659,    +0.99479,   +0.11101,    +0.07819,    +0.00244,  -14.90600,   -54.75200,    +0.81200
   685782427,   -0.00220,    -0.00439,    +0.98820,   +0.11223,    +0.07697,    +0.00122,  -14.03600,   -55.44800,    +1.33400
   685793702,   -0.00293,    -0.01391,    +0.99113,   +0.11345,    +0.07086,    +0.00244,  -14.03600,   -55.44800,    +1.33400
   685805119,   -0.00439,    -0.00659,    +0.99479,   +0.10978,    +0.07941,    +0.00244,  -14.73200,   -54.86800,    +1.68200
   685816382,   -0.00659,    -0.00366,    +0.99332,   +0.11223,    +0.08430,    -0.00122,  -14.55800,   -55.21600,    +0.40600
   685827616,   +0.00073,    -0.01318,    +0.99918,   +0.11467,    +0.07575,    +0.00000,  -14.44200,   -55.50600,    +1.39200
   685838900,   -0.00805,    -0.00366,    +0.99479,   +0.10612,    +0.07086,    +0.00244,  -15.13800,   -55.15800,    +1.27600
   685850108,   -0.01025,    -0.00659,    +0.99698,   +0.11101,    +0.07819,    -0.00367,  -14.67400,   -54.75200,    +1.21800
   685861344,   +0.00000,    -0.01025,    +1.00357,   +0.11467,    +0.07086,    +0.00122,  -14.09400,   -55.04200,    +1.45000
   685872590,   -0.00073,    -0.01098,    +0.99406,   +0.11101,    +0.07941,    -0.31276,  -14.15200,   -55.39000,    +1.56600
   685883849,   -0.00366,    -0.00878,    +0.99772,   +0.10856,    +0.07819,    +0.00244,  -14.15200,   -55.39000,    +1.56600
   685895167,   -0.00220,    -0.00146,    +1.00430,   +0.10490,    +0.08063,    -0.00122,  -14.50000,   -54.57800,    +0.40600
   685906424,   +0.00220,    -0.00512,    +0.99991,   +0.10612,    +0.08552,    +0.00244,  -14.67400,   -54.92600,    +1.21800
   685917683,   -0.00366,    -0.00952,    +0.99772,   +0.11345,    +0.07697,    +0.00367,  -14.67400,   -55.50600,    +1.50800
   685928888,   -0.00512,    -0.00805,    +0.99113,   +0.11101,    +0.08063,    +0.00122,  -14.61600,   -55.04200,    +1.85600
   685940133,   -0.00512,    -0.01244,    +0.99186,   +0.11711,    +0.07697,    +0.00122,  -14.55800,   -54.81000,    +1.50800
   685951332,   -0.00220,    -0.01171,    +0.99772,   +0.11223,    +0.07453,    +0.00244,  -13.74600,   -55.56400,    +1.16000
   685962565,   -0.00366,    -0.01098,    +1.00284,   +0.10490,    +0.07330,    +0.00244,  -14.50000,   -55.39000,    +0.75400
   685973845,   +0.00146,    -0.01318,    +0.99698,   +0.10367,    +0.08430,    -0.00122,  -14.50000,   -55.39000,    +0.75400
   685985159,   -0.00439,    -0.01171,    +0.99479,   +0.11345,    +0.07941,    -0.00122,  -14.79000,   -55.15800,    +1.62400
   685996371,   -0.00073,    -0.01098,    +0.99991,   +0.10490,    +0.07330,    +0.00122,  -14.38400,   -54.86800,    +1.39200
   686007671,   +0.00293,    -0.01025,    +0.99406,   +0.10856,    +0.07819,    +0.00122,  -14.61600,   -54.98400,    +0.63800
   686018907,   -0.00220,    -0.01318,    +0.99186,   +0.10856,    +0.07453,    +0.00367,  -14.61600,   -55.27400,    +0.75400
   686030169,   -0.00366,    -0.01537,    +0.99698,   +0.10856,    +0.07941,    +0.00244,  -14.73200,   -55.39000,    +1.04400
   686041405,   +0.00073,    -0.00805,    +0.99259,   +0.11223,    +0.07941,    -0.00367,  -14.44200,   -55.33200,    +1.68200
   686052636,   -0.00073,    -0.00805,    +0.99040,   +0.11345,    +0.07697,    +0.00000,  -15.19600,   -54.92600,    +1.21800
   686063917,   -0.00073,    -0.00805,    +0.99772,   +0.11345,    +0.07697,    +0.00244,  -15.19600,   -54.92600,    +1.21800
   686075148,   -0.00073,    -0.00732,    +0.99186,   +0.11345,    +0.07453,    +0.00000,  -14.38400,   -54.63600,    +0.81200
   686086433,   +0.00000,    -0.01098,    +0.99845,   +0.10734,    +0.07453,    -0.00122,  -14.84800,   -54.57800,    +1.39200
   686097660,   -0.00439,    -0.01684,    +0.99040,   +0.11101,    +0.08186,    +0.00244,  -14.55800,   -54.63600,    +0.52200
   686108868,   -0.00952,    -0.01684,    +1.00284,   +0.10978,    +0.08063,    -0.00244,  -14.96400,   -55.27400,    +1.45000
   686120108,   -0.00805,    -0.01025,    +0.99186,   +0.10856,    +0.07575,    +0.00244,  -15.08000,   -54.52000,    +1.97200
   686131344,   -0.00366,    -0.01025,    +0.99040,   +0.10367,    +0.07575,    +0.00244,  -14.84800,   -54.92600,    +2.49400
   686142556,   -0.00366,    -0.01171,    +0.98893,   +0.10612,    +0.07453,    -0.00122,  -14.61600,   -54.81000,    +1.33400
   686153826,   -0.00073,    -0.01318,    +0.99332,   +0.11101,    +0.07819,    +0.00000,  -14.61600,   -54.81000,    +1.33400
   686165111,   +0.00220,    -0.00952,    +0.99113,   +0.10856,    +0.08063,    +0.00000,  -14.50000,   -54.69400,    +2.08800
   686176372,   +0.00146,    -0.01025,    +0.99332,   +0.10612,    +0.07819,    +0.00122,  -14.84800,   -55.04200,    +1.62400
   686187603,   +0.00000,    -0.00366,    +0.99845,   +0.11101,    +0.08063,    -0.00244,  -14.96400,   -54.86800,    +1.74000
   686198901,   +0.00439,    -0.01464,    +0.99113,   +0.11223,    +0.07575,    +0.00244,  -14.67400,   -55.15800,    +1.91400
   686210125,   +0.00146,    -0.01391,    +0.99406,   +0.10856,    +0.07941,    +0.00244,  -14.67400,   -54.57800,    +1.45000
   686221400,   +0.00000,    -0.01025,    +1.00064,   +0.11101,    +0.07697,    +0.00244,  -14.50000,   -55.04200,    +1.39200
   686232627,   -0.00366,    -0.00805,    +0.99259,   +0.10856,    +0.07819,    -0.00367,  -14.73200,   -54.92600,    +1.50800
   686243917,   -0.00073,    -0.01171,    +0.99479,   +0.10978,    +0.07330,    +0.00367,  -14.73200,   -54.92600,    +1.50800
   686255126,   +0.00073,    -0.01098,    +0.99332,   +0.10612,    +0.08063,    +0.00000,  -14.32600,   -54.28800,    +2.37800
   686266429,   -0.00366,    -0.00659,    +0.99332,   +0.11711,    +0.07453,    +0.00122,  -15.13800,   -55.44800,    +2.37800
   686277664,   -0.00073,    -0.00439,    +0.99698,   +0.11467,    +0.07575,    +0.00244,  -14.55800,   -54.05600,    +1.97200
   686288897,   -0.00439,    -0.00659,    +0.99625,   +0.11467,    +0.08308,    +0.00244,  -14.73200,   -54.69400,    +1.45000
   686300168,   -0.00659,    -0.00732,    +0.98527,   +0.11101,    +0.07819,    -0.00122,  -14.90600,   -54.34600,    +2.20400
   686311391,   -0.00073,    -0.01244,    +0.98893,   +0.11345,    +0.07697,    +0.00122,  -13.97800,   -55.15800,    +1.10200
   686322663,   +0.00000,    -0.01244,    +0.98820,   +0.11101,    +0.07819,    +0.00244,  -14.44200,   -54.75200,    +1.91400
   686333921,   -0.00293,    -0.00512,    +0.99698,   +0.10978,    +0.07575,    +0.00244,  -14.44200,   -54.75200,    +1.91400
   686345230,   -0.00512,    -0.01025,    +0.99040,   +0.11223,    +0.07697,    +0.00244,  -14.67400,   -54.75200,    +1.50800
   686356482,   -0.00659,    -0.01171,    +0.98600,   +0.11467,    +0.07697,    +0.00122,  -14.90600,   -54.46200,    +2.08800
   686367729,   +0.00073,    -0.00805,    +1.00138,   +0.11223,    +0.07208,    +0.00611,  -14.26800,   -54.52000,    +1.62400
   686378958,   -0.00878,    -0.01318,    +0.99698,   +0.10978,    +0.08186,    -0.00122,  -14.32600,   -54.28800,    +1.27600
   686390226,   +0.00073,    -0.00878,    +0.99625,   +0.10856,    +0.07819,    -0.00122,  -14.15200,   -54.23000,    +2.03000
   686401490,   -0.00293,    -0.00586,    +0.98893,   +0.10734,    +0.07208,    +0.00122,  -14.26800,   -54.52000,    +1.33400
   686412749,   +0.00439,    -0.01391,    +0.99625,   +0.11101,    +0.07575,    +0.00611,  -14.55800,   -54.52000,    +0.81200
   686424058,   +0.00220,    -0.00659,    +1.00284,   +0.10367,    +0.07453,    +0.00000,  -14.84800,   -54.52000,    +1.39200
   686435305,   +0.00000,    -0.01098,    +0.99186,   +0.11834,    +0.07819,    -0.00367,  -14.84800,   -54.46200,    +1.39200
   686446581,   +0.00366,    -0.01757,    +0.99406,   +0.11589,    +0.07575,    +0.00489,  -14.38400,   -53.99800,    +1.33400
   686457815,   +0.00000,    -0.01244,    +0.98820,   +0.10978,    +0.08063,    +0.00000,  -14.09400,   -55.21600,    +0.98600
   686469049,   -0.00439,    -0.01171,    +0.99259,   +0.10856,    +0.07819,    +0.00000,  -14.79000,   -55.04200,    +1.04400
   686480249,   -0.01025,    -0.00439,    +1.00357,   +0.11223,    +0.07453,    +0.00367,  -14.61600,   -54.81000,    +1.97200
   686491520,   +0.18300,    -0.01098,    +1.00284,   +0.10612,    +0.07208,    +0.00367,  -15.08000,   -55.21600,    +2.03000
   686502755,   -0.00146,    -0.01098,    +0.99113,   +0.11223,    +0.07819,    +0.00000,  -14.84800,   -55.33200,    +1.85600
   686514059,   -0.00439,    -0.00512,    +0.99552,   +0.10734,    +0.07697,    +0.00244,  -14.73200,   -54.81000,    +2.08800
   686525297,   -0.00146,    -0.00659,    +0.98820,   +0.11467,    +0.07330,    +0.00122,  -14.73200,   -54.81000,    +2.08800
   686536560,   +0.00293,    -0.00512,    +0.98893,   +0.11711,    +0.07453,    -0.00122,  -14.61600,   -54.69400,    +1.39200
   686547793,   -0.00220,    -0.00512,    +0.99625,   +0.11467,    +0.07941,    +0.00122,  -14.44200,   -55.21600,    +1.56600
   686559080,   -0.00512,    -0.01025,    +0.99845,   +0.10856,    +0.07941,    -0.00122,  -14.44200,   -55.10000,    +1.39200
   686570306,   +0.00146,    -0.01610,    +0.99332,   +0.11345,    +0.08063,    -0.00489,  -14.61600,   -54.57800,    +1.04400
   686581575,   -0.00732,    -0.01464,    +0.98454,   +0.10612,    +0.07697,    +0.00000,  -15.02200,   -54.92600,    +0.98600
   686592806,   -0.00293,    -0.00805,    +0.98820,   +0.11589,    +0.07941,    +0.00122,  -14.38400,   -55.27400,    +1.33400
   686604122,   -0.00439,    -0.00805,    +0.99479,   +0.11101,    +0.07819,    +0.00000,  -14.26800,   -55.39000,    +0.87000
   686615351,   -0.00952,    -0.00732,    +0.99698,   +0.11223,    +0.08186,    +0.00122,  -14.26800,   -55.39000,    +0.87000
   686626624,   +0.00000,    -0.00439,    +0.99332,   +0.11345,    +0.07697,    +0.00367,  -15.08000,   -54.52000,    +2.66800
   686637849,   -0.00220,    -0.00512,    +0.99259,   +0.11101,    +0.07819,    +0.00000,  -15.08000,   -54.98400,    +0.98600
   686649117,   -0.00732,    -0.00952,    +0.98893,   +0.10978,    +0.07330,    -0.00611,  -15.37000,   -54.92600,    +2.08800
   686660315,   -0.00366,    -0.01244,    +1.00357,   +0.10856,    +0.08063,    +0.00122,  -14.73200,   -55.10000,    +1.33400
   686671584,   -0.00439,    -0.00805,    +0.99406,   +0.11467,    +0.08063,    +0.00122,  -15.13800,   -54.86800,    +0.87000
   686682820,   -0.00073,    -0.01098,    +0.99845,   +0.11345,    +0.07575,    -0.00244,  -15.19600,   -54.57800,    +1.45000
   686694104,   -0.00293,    -0.00952,    +1.00138,   +0.10490,    +0.08308,    +0.00122,  -14.90600,   -54.75200,    +2.08800
   686705443,   -0.00073,    -0.00732,    +0.99259,   +0.11589,    +0.07575,    -0.00122,  -14.90600,   -54.75200,    +2.08800
   686716699,   +0.00293,    -0.01318,    +0.99625,   +0.10612,    +0.08063,    +0.00000,  -14.96400,   -54.86800,    +1.68200
   686727898,   -0.00366,    -0.00805,    +0.99918,   +0.11101,    +0.07453,    -0.00489,  -14.50000,   -54.57800,    +1.21800
   686739132,   -0.00146,    -0.01025,    +1.00138,   +0.10612,    +0.07941,    +0.00122,  -14.90600,   -54.98400,    +1.85600
   686750332,   +0.00000,    -0.01318,    +1.00211,   +0.11101,    +0.07575,    -0.00244,  -14.61600,   -54.86800,    +1.62400
   686761566,   +0.00439,    -0.01318,    +0.99698,   +0.11223,    +0.07819,    -0.00122,  -14.73200,   -55.15800,    +1.27600
   686772763,   +0.00146,    -0.01098,    +0.99991,   +0.11345,    +0.08063,    +0.00367,  -14.26800,   -55.15800,    +0.69600
   686784045,   -0.00366,    -0.00952,    +0.99113,   +0.10367,    +0.07453,    +0.00244,  -14.55800,   -54.63600,    +1.74000
   686795243,   -0.00073,    -0.00878,    +0.99259,   +0.11345,    +0.07819,    +0.00244,  -14.55800,   -54.63600,    +1.74000
   686806501,   -0.00073,    -0.00805,    +0.99918,   +0.10978,    +0.07208,    +0.00000,  -14.50000,   -55.04200,    +1.62400
   686817701,   -0.00439,    -0.01171,    +0.99698,   +0.11101,    +0.07208,    +0.00000,  -14.61600,   -54.75200,    +1.45000
   686828972,   -0.00073,    -0.01025,    +0.99406,   +0.11345,    +0.07575,    -0.00122,  -14.79000,   -54.69400,    +1.10200
   686840210,   -0.00366,    -0.00586,    +0.99552,   +0.10856,    +0.07330,    +0.00000,  -14.15200,   -54.86800,    +1.45000
   686851423,   -0.00073,    -0.00366,    +0.99479,   +0.11101,    +0.07697,    +0.00122,  -14.44200,   -54.40400,    +1.74000
   686862712,   -0.00073,    -0.01244,    +0.99332,   +0.10978,    +0.07330,    +0.00000,  -14.73200,   -55.27400,    +1.33400
   686873936,   -0.00732,    -0.00659,    +0.98820,   +0.10123,    +0.07453,    -0.00244,  -14.96400,   -54.52000,    +0.63800
   686885209,   +0.00146,    -0.01098,    +0.98674,   +0.10856,    +0.07575,    +0.00244,  -14.96400,   -54.52000,    +0.63800
   686896434,   -0.00732,    -0.01244,    +0.99259,   +0.10978,    +0.07941,    +0.00122,  -13.86200,   -54.69400,    +1.10200
   686907644,   -0.00366,    -0.00805,    +0.98820,   +0.11345,    +0.07453,    +0.00244,  -14.44200,   -54.75200,    +1.79800
   686918892,   -0.00659,    -0.00586,    +0.99845,   +0.11101,    +0.07330,    +0.00244,  -14.38400,   -54.63600,    +1.33400
   686930153,   -0.00220,    -0.01318,    +0.99332,   +0.11711,    +0.07941,    +0.00122,  -14.32600,   -54.81000,    +1.74000
   686941401,   -0.00220,    -0.01025,    +0.99040,   +0.10856,    +0.07330,    +0.00122,  -13.39800,   -55.15800,    +1.79800
   686952666,   -0.00073,    -0.01318,    +0.99698,   +0.11467,    +0.08063,    +0.00489,  -14.38400,   -55.44800,    +1.50800
   686963922,   -0.00220,    -0.00805,    +0.99332,   +0.11467,    +0.08308,    -0.00122,  -14.50000,   -55.04200,    +1.50800
   686975194,   -0.00293,    -0.01171,    +0.99113,   +0.11101,    +0.07208,    +0.00122,  -14.50000,   -55.04200,    +1.50800
   686986427,   +0.00220,    -0.01318,    +0.99259,   +0.11345,    +0.06964,    +0.00122,  -14.38400,   -54.34600,    +2.03000
   686997683,   -0.00220,    -0.00805,    +0.99772,   +0.10734,    +0.07575,    +0.00000,  -14.84800,   -54.75200,    +1.56600
   687008879,   -0.00878,    -0.00805,    +0.98966,   +0.10734,    +0.07330,    +0.00367,  -15.13800,   -54.81000,    +1.91400
   687020123,   +0.00146,    -0.01830,    +0.99698,   +0.10734,    +0.07575,    +0.00244,  -15.13800,   -55.44800,    +1.45000
   687031320,   -0.00878,    -0.00878,    +0.99186,   +0.10856,    +0.08186,    +0.00000,  -14.73200,   -54.69400,    +1.27600
   687042552,   -0.00952,    -0.00586,    +1.00211,   +0.11467,    +0.08063,    +0.00367,  -15.02200,   -55.10000,    +1.56600
   687053788,   -0.00732,    -0.00952,    +0.99845,   +0.10856,    +0.07819,    +0.00489,  -14.26800,   -55.04200,    +2.08800
   687065131,   -0.00146,    -0.00512,    +1.00064,   +0.11467,    +0.07697,    +0.00122,  -14.26800,   -55.04200,    +2.08800
   687076402,   -0.00220,    -0.00732,    +1.00796,   +0.10856,    +0.07941,    -0.00244,  -13.97800,   -55.04200,    +1.45000
   687087628,   +0.00073,    -0.00878,    +0.99552,   +0.11345,    +0.07819,    +0.00367,  -14.21000,   -55.15800,    +1.16000
   687098899,   +0.00146,    -0.00512,    +0.99552,   +0.10856,    +0.06964,    +0.00244,  -14.44200,   -54.52000,    +1.33400
   687110127,   +0.00220,    -0.01025,    +0.98600,   +0.10612,    +0.07575,    +0.00122,  -15.08000,   -55.15800,    +1.04400
   687121398,   -0.00878,    -0.00439,    +0.99479,   +0.10978,    +0.07697,    +0.00000,  -14.61600,   -54.52000,    +0.29000
   687132625,   +0.00000,    -0.00439,    +1.00357,   +0.11345,    +0.07819,    -0.00489,  -14.55800,   -54.57800,    +1.04400
   687143923,   -0.00220,    -0.00952,    +0.99845,   +0.11223,    +0.07819,    -0.00244,  -14.67400,   -54.69400,    +1.39200
   687155128,   -0.00439,    -0.00512,    +0.99259,   +0.10612,    +0.07697,    +0.00122,  -14.67400,   -54.69400,    +1.39200
   687166423,   -0.00146,    -0.01244,    +0.99406,   +0.11223,    +0.07941,    +0.00855,  -15.19600,   -55.04200,    +1.45000
   687177649,   +0.00220,    -0.00586,    +0.99259,   +0.11467,    +0.07697,    +0.00000,  -14.90600,   -54.86800,    +1.39200
   687188857,   -0.00512,    -0.01025,    +0.99918,   +0.11345,    +0.07697,    +0.00122,  -15.25400,   -53.94000,    +0.98600
   687200093,   -0.00366,    -0.01098,    +1.00577,   +0.10856,    +0.07453,    +0.00367,  -15.19600,   -54.86800,    +1.33400
   687211325,   +0.00000,    -0.01537,    +0.98893,   +0.10367,    +0.07697,    +0.00244,  -15.02200,   -54.86800,    +1.74000
   687222547,   -0.00878,    -0.00366,    +0.99406,   +0.11223,    +0.07697,    -0.00122,  -15.25400,   -54.92600,    +0.98600
   687233821,   +0.00439,    -0.01830,    +0.98966,   +0.10734,    +0.08063,    +0.00000,  -15.19600,   -54.69400,    +0.52200
   687245099,   +0.00146,    -0.01318,    +0.98820,   +0.11345,    +0.07697,    +0.00244,  -15.19600,   -54.69400,    +0.52200
   687256320,   -0.00073,    -0.00586,    +0.99479,   +0.11223,    +0.08063,    +0.00244,  -15.02200,   -55.15800,    +1.04400
   687267553,   -0.00073,    -0.00878,    +0.98674,   +0.10856,    +0.07941,    -0.00367,  -14.96400,   -55.10000,    +0.87000
   687278763,   +0.00000,    -0.01244,    +1.00138,   +0.11589,    +0.07330,    +0.00244,  -14.61600,   -54.46200,    +1.50800
   687290052,   -0.00512,    -0.00659,    +0.99332,   +0.10978,    +0.07819,    +0.00122,  -14.55800,   -54.57800,    +0.75400
   687301290,   -0.00146,    -0.01171,    +1.00138,   +0.11711,    +0.07941,    -0.00122,  -14.67400,   -55.27400,    +1.50800
   687312550,   +0.00220,    -0.00512,    +1.00138,   +0.10612,    +0.07453,    +0.00244,  -14.32600,   -55.04200,    +0.58000
   687323783,   -0.00073,    -0.00659,    +1.00650,   +0.11101,    +0.07697,    -0.31276,  -14.61600,   -54.98400,    +1.56600
   687335082,   -0.00659,    -0.00512,    +1.00284,   +0.10490,    +0.07941,    +0.00000,  -14.61600,   -54.98400,    +1.56600
   687346318,   -0.00073,    -0.01098,    +0.99186,   +0.10734,    +0.07819,    +0.00367,  -14.09400,   -54.46200,    +0.58000
   687357570,   -0.00586,    -0.00366,    +0.99552,   +0.10490,    +0.07819,    +0.00122,  -14.61600,   -54.57800,    +1.04400
   687368803,   -0.00220,    -0.00586,    +0.99406,   +0.11467,    +0.07453,    +0.00611,  -14.50000,   -54.92600,    +1.27600
   687380028,   +0.00146,    -0.01025,    +0.99625,   +0.10367,    +0.08308,    +0.00244,  -14.79000,   -54.69400,    +1.10200
   687391248,   -0.00586,    +0.00000,    +0.99918,   +0.10734,    +0.07819,    +0.00000,  -14.26800,   -54.86800,    +1.16000
   687402487,   -0.00146,    -0.00439,    +0.99332,   +0.11223,    +0.07575,    +0.00244,  -14.67400,   -54.57800,    +1.16000
   687413691,   +0.00146,    -0.00805,    +0.99332,   +0.10978,    +0.07697,    -0.00244,  -14.50000,   -55.10000,    +1.04400
   687425058,   +0.00000,    -0.01391,    +0.99332,   +0.11223,    +0.07819,    +0.00122,  -14.50000,   -55.10000,    +1.04400
   687436268,   +0.00000,    -0.02123,    +0.99698,   +0.10978,    +0.07941,    +0.00122,  -15.02200,   -54.98400,    +1.21800
   687447525,   -0.00220,    -0.00659,    +0.99552,   +0.11223,    +0.07208,    +0.00244,  -14.90600,   -54.57800,    +0.75400
   687458788,   -0.00073,    -0.00366,    +0.99552,   +0.11956,    +0.07575,    +0.00489,  -15.08000,   -54.75200,    -0.17400
   687470019,   +0.00146,    -0.01171,    +0.99772,   +0.11223,    +0.07208,    +0.00122,  -14.26800,   -54.69400,    +0.46400
   687481295,   +0.18446,    -0.00952,    +0.99698,   +0.11101,    +0.07819,    +0.00367,  -14.32600,   -54.86800,    +0.87000
   687492520,   -0.00293,    -0.01537,    +1.00504,   +0.10978,    +0.07941,    +0.00367,  -14.61600,   -54.57800,    +1.45000
   687503793,   -0.00220,    -0.00659,    +0.99479,   +0.10978,    +0.07941,    +0.00000,  -14.50000,   -55.27400,    +0.92800
   687515030,   +0.00146,    -0.00659,    +0.98820,   +0.11101,    +0.07819,    -0.00367,  -14.50000,   -55.27400,    +0.92800
   687526234,   -0.00146,    -0.00805,    +0.98234,   +0.11223,    +0.07819,    +0.00244,  -14.55800,   -55.04200,    +1.39200
   687537439,   -0.00293,    -0.00512,    +1.00430,   +0.11345,    +0.07453,    +0.00000,  -14.55800,   -55.04200,    +0.23200
   687548634,   -0.00220,    -0.00659,    +0.99918,   +0.11467,    +0.08063,    -0.00244,  -14.03600,   -55.15800,    +0.81200
   687559834,   -0.00220,    -0.01244,    +0.99332,   +0.11711,    +0.07819,    +0.00244,  -14.32600,   -55.33200,    +1.39200
   687571028,   -0.00586,    -0.00952,    +0.99991,   +0.11467,    +0.07697,    -0.00244,  -14.32600,   -55.50600,    +0.92800
   687582225,   +0.00146,    -0.00952,    +0.99698,   +0.10978,    +0.07330,    +0.00367,  -13.92000,   -55.50600,    +1.79800
   687593418,   -0.00366,    -0.00732,    +0.99625,   +0.11467,    +0.08308,    +0.00122,  -14.50000,   -55.21600,    +1.10200
   687604627,   +0.00073,    -0.00878,    +0.99406,   +0.10978,    +0.07819,    +0.00367,  -14.50000,   -55.21600,    +1.10200
   687615858,   +0.00146,    -0.01025,    +0.99332,   +0.10978,    +0.07208,    +0.00122,  -15.08000,   -54.92600,    +0.92800
   687627119,   -0.00146,    -0.00952,    +0.98966,   +0.10367,    +0.07941,    +0.00367,  -14.90600,   -55.04200,    +1.33400
   687638369,   -0.00293,    -0.01610,    +1.00064,   +0.11101,    +0.07941,    +0.00122,  -14.67400,   -54.92600,    +2.66800
   687649626,   -0.00659,    -0.00952,    +0.99552,   +0.10978,    +0.07575,    +0.00244,  -14.61600,   -55.33200,    +1.79800
   687660877,   -0.00439,    -0.01025,    +0.99186,   +0.11101,    +0.07575,    +0.00244,  -14.96400,   -54.86800,    +1.45000
   687672138,   +0.00073,    -0.01537,    +1.00138,   +0.10978,    +0.07330,    +0.00367,  -14.32600,   -55.27400,    +1.74000
   687683387,   +0.00220,    -0.01025,    +0.99040,   +0.11101,    +0.07575,    +0.00244,  -15.02200,   -54.98400,    +1.50800
   687694689,   -0.00293,    -0.00952,    +0.99991,   +0.11223,    +0.07697,    -0.00367,  -15.02200,   -54.98400,    +1.50800
   687705938,   +0.00073,    -0.01464,    +1.00211,   +0.10978,    +0.07819,    +0.00244,  -14.79000,   -54.63600,    +1.97200
   687717191,   +0.00220,    -0.01684,    +0.99479,   +0.10856,    +0.07819,    +0.00122,  -14.50000,   -54.40400,    +1.10200
   687728444,   +0.00073,    -0.01098,    +0.99552,   +0.10245,    +0.07453,    +0.00489,  -14.90600,   -54.75200,    +0.92800
   687739702,   +0.00293,    -0.00366,    +0.99406,   +0.11345,    +0.07819,    +0.00244,  -14.96400,   -54.81000,    +0.87000
   687750957,   -0.00952,    -0.01025,    +0.99406,   +0.11467,    +0.08063,    +0.00244,  -14.32600,   -54.23000,    +1.74000
   687762207,   -0.00146,    -0.01098,    +0.99113,   +0.10734,    +0.07453,    +0.00367,  -14.21000,   -54.69400,    +1.27600
   687773457,   -0.00146,    -0.00659,    +0.99698,   +0.11101,    +0.07819,    +0.00489,  -14.32600,   -55.50600,    +1.45000
   687784724,   -0.00586,    -0.00952,    +0.99845,   +0.10856,    +0.07575,    +0.00489,  -14.32600,   -55.50600,    +1.45000
   687796039,   -0.00146,    -0.00805,    +0.99625,   +0.11834,    +0.07941,    +0.00489,  -14.61600,   -55.27400,    +0.98600
   687807287,   +0.00146,    -0.00952,    +1.00064,   +0.11101,    +0.07575,    +0.00244,  -14.50000,   -55.10000,    +1.74000
   687818535,   -0.00439,    -0.00878,    +0.99845,   +0.11345,    +0.07208,    +0.00000,  -13.97800,   -55.27400,    +2.20400
   687829797,   -0.00586,    -0.00952,    +0.99552,   +0.10734,    +0.07330,    +0.00000,  -14.09400,   -54.63600,    +2.32000
   687841045,   +0.00073,    -0.00659,    +1.00284,   +0.11101,    +0.07697,    -0.00122,  -14.67400,   -55.21600,    +1.56600
   687852314,   -0.00439,    -0.00732,    +0.99918,   +0.10612,    +0.07941,    +0.00489,  -14.67400,   -54.46200,    +1.27600
   687863572,   +0.00000,    -0.00805,    +0.98161,   +0.11467,    +0.07941,    -0.00489,  -14.73200,   -54.69400,    +1.33400
   687874844,   -0.00146,    -0.01171,    +0.99625,   +0.10734,    +0.07453,    +0.00244,  -14.73200,   -54.69400,    +1.33400
   687886097,   -0.00220,    -0.00805,    +0.99113,   +0.10612,    +0.08063,    +0.00000,  -14.15200,   -54.86800,    +2.55200
   687897367,   +0.00000,    -0.00439,    +0.99625,   +0.10856,    +0.07575,    +0.00000,  -14.44200,   -55.62200,    +1.68200
   687908622,   +0.00220,    -0.01098,    +0.99552,   +0.10856,    +0.08063,    +0.00122,  -14.67400,   -54.92600,    +2.08800
   687919882,   -0.00805,    -0.00366,    +0.99040,   +0.11711,    +0.07208,    -0.00244,  -14.32600,   -54.98400,    +2.20400
   687931142,   -0.00952,    -0.00439,    +0.99991,   +0.10734,    +0.07819,    -0.00244,  -14.73200,   -55.10000,    +2.37800
   687942394,   -0.00073,    -0.00732,    +1.00577,   +0.10734,    +0.07697,    +0.00367,  -14.15200,   -54.63600,    +1.62400
   687953645,   +0.00146,    -0.00732,    +1.00650,   +0.10978,    +0.07819,    +0.00367,  -14.44200,   -54.81000,    +1.85600
   687964930,   -0.00878,    -0.00586,    +0.99332,   +0.10856,    +0.07941,    +0.00122,  -14.44200,   -54.81000,    +1.85600
   687976179,   -0.00293,    -0.00732,    +0.99113,   +0.11101,    +0.07941,    +0.00000,  -14.32600,   -55.21600,    +1.91400
   687987430,   +0.00000,    -0.00732,    +0.99991,   +0.10734,    +0.07208,    +0.00489,  -14.79000,   -55.04200,    +1.85600
   687998677,   +0.00000,    -0.01025,    +0.99991,   +0.10612,    +0.07086,    +0.00367,  -14.15200,   -54.57800,    +2.03000
   688009949,   -0.00293,    -0.00805,    +0.98966,   +0.10978,    +0.07453,    +0.00000,  -14.26800,   -54.98400,    +1.79800
   688021196,   -0.00805,    -0.01318,    +0.99479,   +0.11101,    +0.07575,    +0.00000,  -14.50000,   -54.52000,    +1.16000
   688032445,   +0.00220,    -0.00878,    +0.99918,   +0.10978,    +0.07697,    +0.00244,  -14.79000,   -55.10000,    +2.32000
   688043718,   -0.01025,    -0.00512,    +0.99918,   +0.10978,    +0.07330,    +0.00122,  -14.67400,   -54.81000,    +1.97200
   688055027,   -0.00146,    -0.00805,    +1.00357,   +0.10978,    +0.07453,    +0.00122,  -14.67400,   -54.81000,    +1.97200
   688066280,   +0.00439,    -0.00659,    +0.99332,   +0.11711,    +0.07697,    +0.00000,  -14.90600,   -54.75200,    +1.79800
   688077534,   -0.00293,    -0.01244,    +0.99552,   +0.10978,    +0.07941,    +0.00611,  -14.96400,   -55.10000,    +2.61000
   688088783,   +0.00073,    -0.01025,    +0.99332,   +0.11711,    +0.07575,    +0.00000,  -14.44200,   -54.98400,    +1.04400
   688100041,   +0.00073,    -0.00366,    +0.99772,   +0.10978,    +0.07453,    +0.00000,  -14.55800,   -54.86800,    +1.45000
   688111287,   -0.01244,    -0.01391,    +0.99479,   +0.11345,    +0.07453,    +0.00244,  -14.21000,   -54.86800,    +1.62400
   688122537,   -0.00659,    -0.00952,    +0.99918,   +0.11834,    +0.07453,    +0.00244,  -14.38400,   -55.04200,    +1.79800
   688133785,   -0.00073,    -0.01171,    +0.99406,   +0.10978,    +0.07819,    +0.00244,  -14.84800,   -55.85400,    +1.50800
   688145050,   -0.00439,    -0.01098,    +0.99991,   +0.11834,    +0.07575,    +0.00244,  -14.84800,   -55.85400,    +1.50800
   688156363,   -0.00220,    -0.01171,    +1.00064,   +0.11223,    +0.07453,    +0.00000,  -14.50000,   -54.69400,    +1.04400
   688167613,   -0.00512,    -0.00878,    +0.99479,   +0.10856,    +0.07697,    -0.00122,  -14.79000,   -54.98400,    +1.33400
   688178860,   -0.00366,    -0.00073,    +0.99698,   +0.11223,    +0.07819,    -0.00489,  -14.50000,   -54.92600,    +2.03000
   688190133,   +0.00220,    -0.01098,    +0.98966,   +0.10978,    +0.07819,    -0.00367,  -14.44200,   -54.98400,    +1.45000
   688201381,   +0.00000,    -0.01757,    +0.99332,   +0.10612,    +0.07819,    +0.00367,  -14.73200,   -55.04200,    +2.32000
   688212669,   -0.00073,    -0.00878,    +0.99479,   +0.11467,    +0.07941,    +0.00489,  -15.02200,   -55.27400,    +1.27600
   688223911,   +0.00439,    -0.01171,    +0.99552,   +0.11223,    +0.07819,    +0.00244,  -14.96400,   -54.86800,    +1.97200
   688235183,   -0.00512,    -0.00805,    +0.99991,   +0.11223,    +0.07453,    +0.00611,  -14.96400,   -54.86800,    +1.97200
   688246455,   +0.00293,    -0.00366,    +0.99698,   +0.10734,    +0.07208,    +0.00367,  -14.32600,   -54.92600,    +1.39200
   688257712,   -0.00878,    -0.00805,    +0.99406,   +0.10367,    +0.07575,    +0.00000,  -14.84800,   -54.46200,    +1.74000
   688268970,   +0.00000,    -0.01318,    +0.99479,   +0.11101,    +0.06842,    -0.00367,  -14.79000,   -54.34600,    +1.45000
   688280230,   -0.00659,    -0.00952,    +1.00723,   +0.10734,    +0.07819,    +0.00122,  -14.50000,   -54.63600,    +1.16000
   688291478,   -0.00586,    -0.00805,    +0.99406,   +0.11223,    +0.07575,    +0.00122,  -14.90600,   -54.57800,    +1.21800
   688302733,   +0.00000,    -0.00586,    +0.99332,   +0.10856,    +0.07330,    +0.00000,  -14.50000,   -54.81000,    +1.16000
   688313980,   +0.00220,    -0.00439,    +0.99698,   +0.10612,    +0.07697,    +0.00122,  -14.73200,   -55.15800,    +0.92800
   688325240,   -0.00878,    -0.01391,    +0.99113,   +0.11101,    +0.07575,    +0.00244,  -14.73200,   -55.15800,    +0.92800
   688336487,   +0.00073,    -0.01025,    +1.00138,   +0.10978,    +0.07330,    +0.00244,  -14.44200,   -54.81000,    +1.79800
   688347751,   +0.00293,    -0.00952,    +0.99479,   +0.10490,    +0.07697,    +0.00244,  -14.73200,   -54.92600,    +0.98600
   688358999,   -0.00805,    -0.00805,    +0.99698,   +0.11711,    +0.07941,    +0.00000,  -14.67400,   -55.15800,    +0.98600
   688370263,   +0.00000,    -0.01537,    +0.98966,   +0.10856,    +0.07575,    +0.00244,  -14.55800,   -54.81000,    +1.68200
   688381511,   +0.00146,    -0.01318,    +1.00064,   +0.10978,    +0.07330,    +0.00122,  -14.32600,   -54.81000,    +0.92800
   688392810,   -0.00220,    -0.00952,    +1.00284,   +0.10978,    +0.07453,    +0.00244,  -14.44200,   -55.04200,    +0.92800
   688403730,   -0.00439,    -0.00586,    +0.99332,   +0.11467,    +0.07941,    +0.00122,  -14.67400,   -54.86800,    +0.75400
   688414648,   -0.00952,    -0.01098,    +0.99186,   +0.10856,    +0.08063,    +0.00122,  -14.67400,   -54.86800,    +0.75400
   688425539,   -0.00512,    -0.01684,    +0.99772,   +0.11589,    +0.07575,    -0.00367,  -14.67400,   -54.34600,    +0.63800
   688436431,   -0.00512,    -0.01610,    +1.00211,   +0.10856,    +0.07453,    +0.00122,  -14.55800,   -54.81000,    +0.11600
   688447324,   -0.00439,    -0.01098,    +0.99625,   +0.10978,    +0.07941,    +0.00000,  -14.50000,   -53.99800,    +0.69600
   688458215,   +0.00146,    -0.00952,    +1.00357,   +0.11101,    +0.07941,    +0.00122,  -15.02200,   -54.63600,    +0.75400
   688469106,   +0.00146,    -0.01025,    +0.99845,   +0.10856,    +0.08063,    +0.00000,  -14.73200,   -54.81000,    +0.92800
   688479998,   +0.00000,    -0.00805,    +0.99698,   +0.10367,    +0.07330,    -0.00244,  -15.13800,   -55.04200,    +1.33400
   688490889,   -0.00366,    -0.01098,    +0.99698,   +0.11467,    +0.07453,    +0.00122,  -15.13800,   -55.04200,    +1.33400
   688501786,   +0.00073,    -0.01318,    +0.99479,   +0.11345,    +0.07819,    +0.00244,  -15.37000,   -54.57800,    +1.27600
   688513048,   -0.00293,    -0.00659,    +0.99332,   +0.11467,    +0.07819,    -0.00122,  -15.02200,   -54.52000,    +1.62400
   688524353,   -0.00220,    -0.00878,    +0.98747,   +0.11101,    +0.07086,    +0.00000,  -14.67400,   -54.81000,    +1.16000
   688535601,   +0.00146,    -0.00439,    +0.99479,   +0.10856,    +0.07208,    +0.00367,  -14.50000,   -54.69400,    +0.58000
   688546849,   +0.00293,    -0.00659,    +0.99552,   +0.11223,    +0.08063,    +0.00367,  -15.02200,   -54.86800,    +0.75400
   688558095,   -0.00146,    -0.00805,    +0.98966,   +0.11711,    +0.07575,    -0.00122,  -14.44200,   -54.69400,    +0.92800
   688569343,   +0.00146,    -0.00439,    +0.99040,   +0.11223,    +0.08186,    -0.00122,  -14.44200,   -54.69400,    +0.92800
   688580591,   -0.00586,    -0.01391,    +0.99772,   +0.10978,    +0.07697,    +0.00000,  -14.55800,   -55.33200,    +0.87000
   688591841,   -0.00293,    -0.00732,    +0.98527,   +0.11467,    +0.07819,    +0.00000,  -15.25400,   -55.39000,    +1.10200
   688603091,   -0.00586,    -0.00512,    +0.99918,   +0.10978,    +0.07697,    +0.00489,  -15.19600,   -54.92600,    +0.92800
   688614372,   -0.00146,    -0.00293,    +0.99332,   +0.10856,    +0.07941,    +0.00122,  -14.55800,   -54.86800,    +1.16000
   688625624,   +0.00000,    -0.01757,    +0.99772,   +0.11101,    +0.07575,    -0.00244,  -14.84800,   -54.69400,    +0.87000
   688636872,   +0.00146,    -0.01098,    +0.99552,   +0.10978,    +0.07330,    +0.00000,  -14.84800,   -55.10000,    +0.63800
   688648125,   -0.00366,    -0.01610,    +0.99259,   +0.10856,    +0.07208,    +0.00000,  -14.55800,   -54.86800,    +0.52200
   688659368,   -0.00146,    -0.00586,    +0.98820,   +0.11345,    +0.07208,    +0.00000,  -14.61600,   -54.75200,    +1.16000
   688670614,   -0.00732,    -0.01098,    +0.99552,   +0.10978,    +0.07697,    +0.00244,  -14.61600,   -54.75200,    +1.16000
   688681886,   +0.00146,    -0.01025,    +1.00796,   +0.11101,    +0.08186,    +0.00367,  -14.73200,   -54.63600,    +0.98600
   688693133,   -0.00512,    -0.00659,    +0.98674,   +0.10856,    +0.07453,    +0.00244,  -14.55800,   -54.57800,    +0.34800
   688704383,   -0.00073,    -0.00805,    +0.99406,   +0.11467,    +0.07819,    +0.00122,  -14.73200,   -54.52000,    +0.87000
   688715629,   +0.00366,    -0.00878,    +1.00211,   +0.10978,    +0.07941,    -0.00244,  -14.21000,   -55.27400,    -0.23200
   688726875,   -0.00293,    -0.00586,    +0.98893,   +0.11345,    +0.07453,    +0.00122,  -14.32600,   -54.92600,    +0.40600
   688738124,   -0.00732,    -0.00586,    +0.99259,   +0.10856,    +0.07208,    +0.00244,  -14.79000,   -54.63600,    +1.45000
   688749374,   +0.00366,    -0.01171,    +0.99406,   +0.11101,    +0.07697,    +0.00367,  -15.13800,   -54.69400,    +1.85600
   688760622,   -0.00952,    -0.00952,    +0.99625,   +0.11711,    +0.07941,    +0.00000,  -15.13800,   -54.69400,    +1.85600
   688771885,   -0.00220,    -0.01025,    +0.99625,   +0.10734,    +0.08063,    +0.00367,  -14.73200,   -55.04200,    +1.27600
   688783132,   +0.00220,    -0.00659,    +0.99698,   +0.11101,    +0.07575,    +0.00000,  -14.55800,   -54.63600,    +1.27600
   688794410,   +0.00073,    -0.00439,    +0.99625,   +0.10490,    +0.07575,    +0.00000,  -14.73200,   -55.10000,    +1.39200
   688805659,   -0.00659,    -0.01318,    +0.99113,   +0.10856,    +0.07575,    +0.00000,  -14.79000,   -55.39000,    +0.52200
   688816929,   -0.00146,    -0.00878,    +0.98820,   +0.10856,    +0.07453,    +0.00122,  -15.02200,   -54.81000,    +0.75400
   688828176,   -0.00586,    -0.01318,    +0.99259,   +0.11589,    +0.08186,    +0.00489,  -14.61600,   -55.33200,    +1.45000
   688839445,   -0.00366,    -0.00805,    +0.99332,   +0.10978,    +0.08186,    -0.00244,  -14.79000,   -54.92600,    +1.45000
   688850690,   -0.00512,    -0.01244,    +0.99845,   +0.11467,    +0.07575,    +0.00122,  -14.79000,   -54.92600,    +1.45000
   688861937,   +0.00000,    -0.01976,    +1.00138,   +0.10734,    +0.07819,    -0.00122,  -14.21000,   -54.69400,    +1.45000
   688873242,   +0.00146,    -0.00439,    +0.99918,   +0.11345,    +0.07575,    +0.00122,  -14.90600,   -54.92600,    +1.16000
   688884522,   -0.00073,    -0.00293,    +0.99772,   +0.11345,    +0.08430,    +0.00367,  -14.38400,   -55.04200,    +1.39200
   688895773,   -0.00586,    -0.00878,    +1.00064,   +0.10978,    +0.08063,    +0.00122,  -14.44200,   -54.98400,    +1.56600
   688907065,   +0.00073,    -0.00659,    +1.00064,   +0.11467,    +0.07697,    +0.00244,  -14.90600,   -55.56400,    +1.91400
   688918314,   +0.00073,    -0.01610,    +0.99698,   +0.10978,    +0.07941,    +0.00244,  -14.50000,   -55.27400,    +1.97200
   688929563,   -0.00732,    -0.00805,    +0.99991,   +0.11223,    +0.07575,    +0.00244,  -14.67400,   -54.92600,    +1.33400
   688940811,   +0.00146,    -0.00732,    +0.99698,   +0.10856,    +0.07697,    -0.00367,  -14.67400,   -54.92600,    +1.33400
   688952061,   +0.00000,    -0.01025,    +1.00138,   +0.11467,    +0.07453,    +0.00489,  -15.08000,   -55.15800,    +1.91400
   688963307,   -0.01098,    -0.00878,    +0.99332,   +0.10612,    +0.07330,    +0.00244,  -14.55800,   -54.81000,    +2.14600
