time, ax, ay, az, gx, gy, gz, mx, my, mz
  3134463987,   -0.02148,    -0.00439,    +1.03467,   -0.01383,    -0.00745,    -0.01383,  -30.77930,  +3463.21436,    +5.93672
  3134474869,   -0.01562,    -0.01074,    +1.02246,   -0.01703,    -0.00958,    -0.00851,  -24.80449,   -10.32012,    +5.06367
  3134485699,   -0.02588,    -0.01514,    +1.02490,   -0.01490,    -0.01064,    -0.01383,  -24.80449,   -10.32012,    +5.06367
  3134496529,   -0.01904,    -0.01611,    +1.03711,   -0.01383,    -0.00958,    -0.00851,  -24.80449,   -10.32012,    +5.06367
  3134507357,   -0.01855,    -0.01221,    +1.03613,   -0.01596,    -0.01064,    -0.01277,  -24.80449,   -10.32012,    +5.06367
  3134518184,   -0.01562,    -0.01855,    +1.03662,   -0.01171,    -0.00851,    -0.01277,  -24.80449,   -10.32012,    +5.06367
  3134529077,   -0.02881,    -0.01465,    +1.01270,   -0.01490,    -0.00851,    -0.01171,  -24.80449,   -10.32012,    +5.06367
  3134539906,   -0.01904,    -0.00732,    +1.02881,   -0.01809,    -0.00745,    -0.00958,  -24.80449,   -10.32012,    +5.06367
  3134550734,   -0.02148,    -0.01855,    +1.02734,   -0.01383,    -0.00532,    -0.01383,  -24.80449,   -10.32012,    +5.06367
  3134561560,   -0.01904,    -0.01172,    +1.02881,   -0.01490,    -0.00319,    -0.01277,  -24.80449,   -10.32012,    +5.06367
  3134572386,   -0.01807,    -0.00879,    +1.01758,   -0.01490,    -0.00745,    -0.01171,  -24.80449,   -10.32012,    +5.06367
  3134583211,   -0.02393,    -0.01074,    +1.01904,   -0.01383,    -0.01277,    -0.01277,  -22.81289,    -9.77695,    +7.33359
  3134594044,   -0.01367,    -0.01807,    +1.02588,   -0.01916,    -0.01277,    -0.00958,  -22.81289,    -9.77695,    +7.33359
  3134604871,   -0.01807,    -0.01172,    +1.03223,   -0.01383,    -0.00639,    -0.01383,  -22.81289,    -9.77695,    +7.33359
  3134615697,   -0.01904,    -0.01270,    +1.02637,   -0.01703,    -0.00851,    -0.01383,  -22.81289,    -9.77695,    +7.33359
  3134626522,   -0.02539,    -0.01465,    +1.02686,   -0.01490,    -0.00958,    -0.01277,  -22.81289,    -9.77695,    +7.33359
  3134637348,   -0.02588,    -0.01611,    +1.03271,   -0.01383,    -0.00745,    -0.00639,  -22.81289,    -9.77695,    +7.33359
  3134648173,   -0.02344,    -0.01025,    +1.03857,   -0.01383,    -0.00958,    -0.01277,  -22.81289,    -9.77695,    +7.33359
  3134659009,   -0.01807,    -0.00439,    +1.02295,   -0.01171,    -0.01064,    -0.01171,  -22.81289,    -9.77695,    +7.33359
  3134669834,   -0.02832,    -0.01172,    +1.02148,   -0.01171,    -0.00426,    -0.01064,  -22.81289,    -9.77695,    +7.33359
  3134680662,   -0.02441,    -0.00781,    +1.01660,   -0.01596,    -0.01277,    -0.01490,  -22.81289,    -9.77695,    +7.33359
  3134691490,   -0.03027,    -0.01025,    +1.02734,   -0.01277,    -0.00851,    -0.01277,  -22.81289,    -9.77695,    +7.33359
  3134702316,   -0.01855,    -0.01074,    +1.03027,   -0.01490,    -0.00745,    -0.01171,  -22.81289,    -9.77695,    +7.33359
  3134713142,   -0.01611,    -0.02100,    +1.02734,   -0.01064,    -0.00851,    -0.01383,  -22.81289,    -9.77695,    +7.33359
  3134723967,   -0.01562,    -0.01904,    +1.02686,   -0.01383,    -0.01171,    -0.00851,  -22.81289,    -9.77695,    +7.33359
  3134734793,   -0.02295,    -0.00391,    +1.03516,   -0.01277,    -0.00745,    -0.00639,  -22.81289,    -9.77695,    +7.33359
  3134745618,   -0.01416,    -0.00146,    +1.02588,   -0.01596,    -0.01064,    -0.01064,  -22.81289,    -9.77695,    +7.33359
  3134756443,   -0.01514,    -0.01172,    +1.02051,   -0.01490,    -0.00426,    -0.00639,  -22.81289,    -9.77695,    +7.33359
  3134767269,   -0.01709,    -0.01172,    +1.03662,   -0.01277,    -0.00639,    -0.01490,  -22.81289,    -9.77695,    +7.33359
  3134778094,   -0.01367,    -0.01611,    +1.02148,   -0.01064,    -0.01596,    -0.01277,  -22.81289,    -9.77695,    +7.33359
  3134788919,   -0.01562,    -0.00635,    +1.02637,   -0.01490,    -0.00851,    -0.00958,  -22.81289,    -9.77695,    +7.33359
  3134799745,   -0.00928,    -0.00732,    +1.03271,   -0.01064,    -0.00745,    -0.01171,  -22.81289,    -9.77695,    +7.33359
  3134810714,   -0.01416,    -0.01709,    +1.03369,   -0.01277,    -0.01171,    -0.00851,  -22.81289,    -9.77695,    +7.33359
  3134821542,   -0.01758,    -0.01025,    +1.02246,   -0.01383,    -0.00958,    -0.01064,  -22.81289,    -9.77695,    +7.33359
  3134832367,   -0.02441,    -0.01514,    +1.02246,   -0.01277,    -0.00851,    -0.00745,  -22.81289,    -9.77695,    +7.33359
  3134843191,   -0.02051,    -0.00537,    +1.02881,   -0.01277,    -0.00426,    -0.01277,  -22.81289,    -9.77695,    +7.33359
  3134854015,   -0.01611,    -0.00928,    +1.02930,   -0.01490,    -0.01383,    -0.01064,  -22.81289,    -9.77695,    +7.33359
  3134864843,   -0.01611,    -0.02051,    +1.03760,   -0.01171,    -0.00426,    -0.01064,  -22.81289,    -9.77695,    +7.33359
  3134875666,   -0.01611,    -0.01807,    +1.02148,   -0.01596,    -0.00958,    -0.01277,  -22.81289,    -9.77695,    +7.33359
  3134886491,   -0.01660,    -0.01318,    +1.03467,   -0.01596,    -0.00639,    -0.01383,  -22.81289,    -9.77695,    +7.33359
  3134897316,   -0.01758,    -0.00879,    +1.02490,   -0.01277,    -0.01064,    -0.00532,  -22.81289,    -9.77695,    +7.33359
  3134908141,   -0.01855,    -0.01465,    +1.02148,   -0.01383,    -0.00958,    -0.01490,  -22.81289,    -9.77695,    +7.33359
  3134919007,   -0.02686,    -0.02002,    +1.02930,   -0.01064,    -0.00319,    -0.00958,  -22.81289,    -9.77695,    +7.33359
  3134929832,   -0.01123,    -0.01709,    +1.03174,   -0.01596,    -0.01064,    -0.01171,  -22.81289,    -9.77695,    +7.33359
  3134940655,   -0.02197,    -0.01611,    +1.02539,   -0.01809,    -0.00851,    -0.01383,  -22.81289,    -9.77695,    +7.33359
  3134951479,   -0.00977,    -0.01562,    +1.02148,   -0.01064,    -0.00639,    -0.01490,  -22.63184,   -10.32012,    +6.11133
  3134962308,   -0.02539,    -0.00928,    +1.03613,   -0.01703,    -0.00745,    -0.01277,  -22.63184,   -10.32012,    +6.11133
  3134973135,   -0.02246,    -0.01123,    +1.02441,   -0.01703,    -0.01064,    -0.00958,  -22.63184,   -10.32012,    +6.11133
  3134983963,   -0.01416,    -0.01074,    +1.02686,   -0.01383,    -0.00639,    -0.01383,  -22.63184,   -10.32012,    +6.11133
  3134994793,   -0.01465,    -0.01172,    +1.03369,   -0.01490,    -0.00851,    -0.00958,  -22.63184,   -10.32012,    +6.11133
  3135005620,   -0.01758,    -0.02100,    +1.00928,   -0.01171,    -0.00958,    -0.01064,  -22.63184,   -10.32012,    +6.11133
  3135016449,   -0.01611,    -0.01660,    +1.01611,   -0.01383,    -0.00106,    -0.00532,  -22.63184,   -10.32012,    +6.11133
  3135027275,   -0.01221,    -0.01660,    +1.03467,   -0.01383,    -0.01383,    -0.00851,  -22.63184,   -10.32012,    +6.11133
  3135038105,   -0.01416,    -0.01514,    +1.02881,   -0.01171,    -0.00745,    -0.01064,  -22.63184,   -10.32012,    +6.11133
  3135048947,   -0.01514,    -0.01514,    +1.01807,   -0.01916,    -0.01064,    -0.01064,  -22.63184,   -10.32012,    +6.11133
  3135059774,   -0.01709,    -0.01221,    +1.03076,   -0.01064,    -0.00745,    -0.01277,  -22.63184,   -10.32012,    +6.11133
  3135070603,   -0.02246,    -0.01758,    +1.03564,   -0.01383,    -0.00851,    -0.01171,  -22.63184,   -10.32012,    +6.11133
  3135081431,   -0.01221,    -0.00781,    +1.03271,   -0.01383,    -0.00851,    -0.01383,  -22.63184,   -10.32012,    +6.11133
  3135092261,   -0.01562,    -0.01074,    +1.02393,   -0.01383,    -0.00851,    -0.00851,  -22.63184,   -10.32012,    +6.11133
  3135103090,   -0.01123,    -0.01709,    +1.02588,   -0.01490,    -0.00958,    -0.00958,  -22.63184,   -10.32012,    +6.11133
  3135113918,   -0.01172,    -0.00928,    +1.03564,   -0.01596,    -0.01064,    -0.01277,  -22.63184,   -10.32012,    +6.11133
  3135124747,   -0.02734,    -0.01562,    +1.01855,   -0.01064,    -0.00639,    -0.01171,  -22.63184,   -10.32012,    +6.11133
  3135135575,   -0.01465,    -0.00732,    +1.03027,   -0.01490,    -0.00851,    -0.01383,  -22.63184,   -10.32012,    +6.11133
  3135146401,   -0.02295,    -0.01709,    +1.03857,   -0.00958,    -0.00532,    -0.01171,  -22.63184,   -10.32012,    +6.11133
  3135157230,   -0.02441,    -0.01318,    +1.03027,   -0.01383,    -0.00851,    -0.00639,  -22.63184,   -10.32012,    +6.11133
  3135173029,   -0.01611,    -0.01611,    +1.02441,   -0.01383,    -0.00319,    -0.00958,  -22.63184,   -10.32012,    +6.11133
  3135183862,   -0.02295,    -0.01270,    +1.03320,   -0.00958,    -0.00851,    -0.01064,  -22.63184,   -10.32012,    +6.11133
  3135194690,   -0.02002,    -0.00586,    +1.02539,   -0.01383,    -0.00958,    -0.00958,  -22.63184,   -10.32012,    +6.11133
  3135205521,   -0.01611,    -0.00537,    +1.01953,   -0.01490,    -0.00851,    -0.01171,  -22.63184,   -10.32012,    +6.11133
  3135216350,   -0.01562,    -0.00928,    +1.03125,   -0.01596,    -0.00958,    -0.01277,  -22.63184,   -10.32012,    +6.11133
  3135227176,   -0.02197,    -0.01221,    +1.03320,   -0.02022,    -0.00745,    -0.01171,  -22.63184,   -10.32012,    +6.11133
  3135238003,   -0.01416,    -0.01074,    +1.03516,   -0.01596,    -0.00745,    -0.01171,  -22.63184,   -10.32012,    +6.11133
  3135248831,   -0.00928,    -0.01123,    +1.02051,   -0.01703,    -0.00745,    -0.00958,  -22.63184,   -10.32012,    +6.11133
  3135259659,   -0.01855,    -0.00049,    +1.02051,   -0.01383,    -0.00319,    -0.00745,  -22.63184,   -10.32012,    +6.11133
  3135270488,   -0.01025,    -0.01465,    +1.02490,   -0.01703,    -0.00745,    -0.00532,  -22.63184,   -10.32012,    +6.11133
  3135281316,   -0.02344,    -0.00342,    +1.02637,   -0.01596,    -0.01277,    -0.01277,  -22.63184,   -10.32012,    +6.11133
  3135292145,   -0.02051,    -0.00635,    +1.02490,   -0.02022,    -0.00639,    -0.01490,  -22.63184,   -10.32012,    +6.11133
  3135302971,   -0.02246,    -0.01514,    +1.02734,   -0.01277,    -0.01064,    -0.01064,  -22.63184,   -10.32012,    +6.11133
  3135313799,   -0.01904,    -0.02197,    +1.03223,   -0.01171,    -0.00745,    -0.01064,  -22.63184,   -10.32012,    +6.11133
  3135324624,   -0.00879,    -0.01660,    +1.03125,   -0.01490,    -0.01490,    -0.01171,  -25.52871,    -8.50957,    +7.85742
  3135335449,   -0.01807,    -0.01562,    +1.03271,   -0.01277,    -0.00958,    -0.00745,  -25.52871,    -8.50957,    +7.85742
  3135346274,   -0.02051,    -0.00684,    +1.03564,   -0.00958,    -0.00958,    -0.01064,  -25.52871,    -8.50957,    +7.85742
  3135357097,   -0.01660,    -0.01318,    +1.02637,   -0.01277,    -0.00851,    -0.01171,  -25.52871,    -8.50957,    +7.85742
  3135367920,   -0.02051,    -0.01270,    +1.03467,   -0.01703,    -0.00745,    -0.01277,  -25.52871,    -8.50957,    +7.85742
  3135378748,   -0.01611,    -0.00732,    +1.02588,   -0.01171,    -0.00745,    -0.01383,  -25.52871,    -8.50957,    +7.85742
  3135389573,   -0.01465,    -0.00781,    +1.02734,   -0.01703,    -0.00958,    -0.01277,  -25.52871,    -8.50957,    +7.85742
  3135400398,   -0.01709,    -0.00928,    +1.03662,   -0.01809,    -0.00532,    -0.01064,  -25.52871,    -8.50957,    +7.85742
  3135411224,   -0.01709,    -0.01318,    +1.02979,   -0.01703,    -0.01064,    -0.00958,  -25.52871,    -8.50957,    +7.85742
  3135422048,   -0.01709,    +0.00098,    +1.02783,   -0.01171,    -0.00851,    -0.01171,  -25.52871,    -8.50957,    +7.85742
  3135432873,   -0.01514,    -0.01611,    +1.02295,   -0.01171,    -0.00639,    -0.01064,  -25.52871,    -8.50957,    +7.85742
  3135443698,   -0.01514,    -0.01709,    +1.01611,   -0.01809,    -0.00958,    -0.01277,  -25.52871,    -8.50957,    +7.85742
  3135454522,   -0.01709,    -0.01123,    +1.02783,   -0.01703,    -0.01490,    -0.01277,  -24.80449,    -9.23379,    +6.11133
  3135465347,   -0.01807,    -0.01611,    +1.03271,   -0.01490,    -0.00639,    -0.01703,  -24.80449,    -9.23379,    +6.11133
  3135476176,   -0.01465,    -0.00879,    +1.01904,   -0.01703,    -0.00532,    -0.01171,  -24.80449,    -9.23379,    +6.11133
  3135487002,   -0.01904,    -0.01416,    +1.01709,   -0.02022,    -0.00851,    -0.01171,  -24.80449,    -9.23379,    +6.11133
  3135497827,   -0.02148,    -0.01416,    +1.02148,   -0.01596,    -0.01064,    -0.01064,  -24.80449,    -9.23379,    +6.11133
  3135508654,   -0.00732,    -0.00586,    +1.03516,   -0.01916,    -0.00851,    -0.00851,  -24.80449,    -9.23379,    +6.11133
  3135519553,   -0.01318,    -0.01562,    +1.03516,   -0.01490,    -0.00958,    -0.00745,  -24.80449,    -9.23379,    +6.11133
  3135530379,   -0.02246,    -0.02051,    +1.01807,   -0.01171,    -0.01064,    -0.01277,  -24.80449,    -9.23379,    +6.11133
  3135541206,   -0.02100,    -0.00879,    +1.03076,   -0.01596,    -0.00426,    -0.00851,  -24.80449,    -9.23379,    +6.11133
  3135552033,   -0.02441,    -0.00977,    +1.03027,   -0.01277,    -0.00745,    -0.01171,  -24.80449,    -9.23379,    +6.11133
  3135562863,   -0.01758,    -0.01709,    +1.02197,   -0.01703,    -0.00958,    -0.01277,  -24.80449,    -9.23379,    +6.11133
  3135573689,   -0.01709,    -0.00684,    +1.02832,   -0.01596,    -0.00426,    -0.01064,  -24.80449,    -9.23379,    +6.11133
  3135584516,   -0.01611,    -0.01025,    +1.01904,   -0.01596,    -0.01277,    -0.01277,  -24.80449,    -9.23379,    +6.11133
  3135595342,   -0.01855,    -0.01270,    +1.03223,   -0.01596,    -0.00851,    -0.01277,  -24.80449,    -9.23379,    +6.11133
  3135606169,   -0.01904,    -0.00732,    +1.02979,   -0.01171,    -0.00639,    -0.01383,  -24.80449,    -9.23379,    +6.11133
  3135616995,   -0.02100,    -0.01025,    +1.03711,   -0.01596,    -0.01277,    -0.00958,  -24.80449,    -9.23379,    +6.11133
  3135627820,   -0.01465,    -0.00928,    +1.02979,   -0.01490,    -0.00745,    -0.01064,  -24.80449,    -9.23379,    +6.11133
  3135638651,   -0.02344,    -0.00977,    +1.02979,   -0.01383,    -0.00639,    -0.01277,  -24.80449,    -9.23379,    +6.11133
  3135649476,   -0.01660,    -0.00342,    +1.04443,   -0.01703,    -0.00426,    -0.00958,  -24.80449,    -9.23379,    +6.11133
  3135660300,   -0.01123,    -0.01416,    +1.03027,   -0.01383,    -0.01171,    -0.00745,  -24.80449,    -9.23379,    +6.11133
  3135671125,   -0.01758,    -0.00488,    +1.01416,   -0.01596,    -0.01064,    -0.01171,  -24.80449,    -9.23379,    +6.11133
  3135681954,   -0.01465,    -0.01465,    +1.02197,   -0.01596,    -0.00639,    -0.01277,  -24.80449,    -9.23379,    +6.11133
  3135692779,   -0.02100,    -0.00635,    +1.02148,   -0.01383,    -0.00851,    -0.00745,  -24.80449,    -9.23379,    +6.11133
  3135703604,   -0.01562,    -0.00928,    +1.02490,   -0.01171,    -0.01064,    -0.01064,  -24.80449,    -9.23379,    +6.11133
  3135714432,   -0.01367,    -0.00879,    +1.03027,   -0.01171,    -0.00851,    -0.01171,  -24.80449,    -9.23379,    +6.11133
  3135725258,   -0.02344,    -0.00928,    +1.03125,   -0.01490,    -0.01064,    -0.01064,  -24.80449,    -9.23379,    +6.11133
  3135736084,   -0.02734,    -0.01465,    +1.02441,   -0.01703,    -0.01064,    -0.01277,  -24.80449,    -9.23379,    +6.11133
  3135746909,   -0.02002,    -0.01660,    +1.02637,   -0.01490,    -0.00639,    -0.00851,  -24.80449,    -9.23379,    +6.11133
  3135757734,   -0.01758,    -0.01562,    +1.04199,   -0.01383,    -0.00532,    -0.01064,  -24.80449,    -9.23379,    +6.11133
  3135768562,   -0.01855,    -0.00879,    +1.02832,   -0.01703,    -0.01064,    -0.01064,  -24.80449,    -9.23379,    +6.11133
  3135779387,   -0.01123,    -0.00732,    +1.02295,   -0.01596,    -0.00639,    -0.01171,  -24.80449,    -9.23379,    +6.11133
  3135790212,   -0.02344,    -0.01514,    +1.02197,   -0.01916,    -0.00639,    -0.01064,  -24.80449,    -9.23379,    +6.11133
  3135801037,   -0.01758,    -0.01123,    +1.03174,   -0.01383,    -0.00851,    -0.01277,  -24.80449,    -9.23379,    +6.11133
  3135811862,   -0.02295,    -0.01172,    +1.02246,   -0.01383,    -0.00745,    -0.01064,  -24.80449,    -9.23379,    +6.11133
  3135822688,   -0.01611,    -0.00488,    +1.03076,   -0.01596,    -0.01064,    -0.01171,  -24.80449,    -9.23379,    +6.11133
  3135833511,   -0.01562,    -0.00781,    +1.02148,   -0.01809,    -0.00532,    -0.01171,  -24.98555,    -9.77695,    +6.98438
  3135844338,   -0.02148,    -0.01562,    +1.01953,   -0.01383,    -0.00851,    -0.01064,  -24.98555,    -9.77695,    +6.98438
  3135855164,   -0.02783,    -0.01514,    +1.02490,   -0.01171,    -0.00958,    -0.01064,  -24.98555,    -9.77695,    +6.98438
  3135866051,   -0.02393,    -0.00537,    +1.04297,   -0.01703,    -0.00745,    -0.00958,  -24.98555,    -9.77695,    +6.98438
  3135876878,   -0.01562,    -0.01514,    +1.03516,   -0.01596,    -0.00426,    -0.01171,  -24.98555,    -9.77695,    +6.98438
  3135887705,   -0.02832,    -0.01904,    +1.02148,   -0.01490,    -0.00851,    -0.01171,  -24.98555,    -9.77695,    +6.98438
  3135898530,   -0.01465,    -0.00781,    +1.01904,   -0.01490,    -0.00958,    -0.01277,  -24.98555,    -9.77695,    +6.98438
  3135909357,   -0.02100,    -0.01758,    +1.02246,   -0.00958,    -0.00319,    -0.01064,  -24.98555,    -9.77695,    +6.98438
  3135920183,   -0.02490,    -0.01318,    +1.03027,   -0.01383,    -0.00958,    -0.01277,  -24.98555,    -9.77695,    +6.98438
  3135931007,   -0.01367,    -0.00391,    +1.02539,   -0.01383,    -0.01064,    -0.01383,  -24.98555,    -9.77695,    +6.98438
  3135941835,   -0.02979,    -0.00928,    +1.03369,   -0.01383,    -0.00745,    -0.01064,  -24.98555,    -9.77695,    +6.98438
  3135952660,   -0.01025,    -0.00977,    +1.03027,   -0.01064,    -0.01383,    -0.00639,  -25.16660,    -7.78535,    +8.20664
  3135963485,   -0.02051,    -0.00684,    +1.03613,   -0.01703,    -0.01277,    -0.01064,  -25.16660,    -7.78535,    +8.20664
  3135974311,   -0.01758,    -0.00049,    +1.03076,   -0.01809,    -0.00532,    -0.01064,  -25.16660,    -7.78535,    +8.20664
  3135985136,   -0.02051,    -0.01660,    +1.02100,   -0.01383,    -0.00745,    -0.01277,  -25.16660,    -7.78535,    +8.20664
  3135995961,   -0.02197,    -0.01514,    +1.01807,   -0.01277,    -0.01064,    -0.01171,  -25.16660,    -7.78535,    +8.20664
  3136006787,   -0.02051,    -0.00488,    +1.02246,   -0.01171,    -0.00639,    -0.00958,  -25.16660,    -7.78535,    +8.20664
  3136017612,   -0.01660,    -0.00732,    +1.01611,   -0.01277,    -0.00958,    -0.00958,  -25.16660,    -7.78535,    +8.20664
  3136028440,   -0.00977,    -0.01318,    +1.03467,   -0.01596,    -0.00532,    -0.01383,  -25.16660,    -7.78535,    +8.20664
  3136039307,   -0.02881,    -0.01465,    +1.03467,   -0.01809,    -0.00639,    -0.01277,  -25.16660,    -7.78535,    +8.20664
  3136050133,   -0.02246,    -0.01074,    +1.02881,   -0.00958,    -0.00745,    -0.00851,  -25.16660,    -7.78535,    +8.20664
  3136060956,   -0.01758,    -0.00781,    +1.03906,   -0.01064,    -0.01064,    -0.00958,  -25.16660,    -7.78535,    +8.20664
  3136071784,   -0.02100,    -0.01221,    +1.01807,   -0.00958,    -0.00745,    -0.00745,  -25.16660,    -7.78535,    +8.20664
  3136082609,   -0.02148,    -0.00928,    +1.03223,   -0.01596,    -0.00426,    -0.01064,  -25.16660,    -7.78535,    +8.20664
  3136093433,   -0.01660,    -0.01123,    +1.03662,   -0.01277,    -0.00745,    -0.01171,  -25.16660,    -7.78535,    +8.20664
  3136104257,   -0.01904,    -0.01221,    +1.03906,   -0.01383,    -0.00532,    -0.01171,  -25.16660,    -7.78535,    +8.20664
  3136115084,   -0.02148,    -0.00586,    +1.02490,   -0.01596,    -0.00958,    -0.01064,  -25.16660,    -7.78535,    +8.20664
  3136125909,   -0.02393,    -0.01172,    +1.01172,   -0.01383,    -0.00745,    -0.01383,  -25.16660,    -7.78535,    +8.20664
  3136136734,   -0.02393,    -0.01660,    +1.02393,   -0.01490,    -0.00639,    -0.00745,  -25.16660,    -7.78535,    +8.20664
  3136147559,   -0.01611,    -0.01172,    +1.02441,   -0.01383,    -0.00851,    -0.01277,  -25.16660,    -7.78535,    +8.20664
  3136158385,   -0.02393,    -0.01123,    +1.02686,   -0.01596,    -0.01064,    -0.01383,  -25.16660,    -7.78535,    +8.20664
  3136169219,   -0.02246,    -0.00781,    +1.02539,   -0.00745,    -0.00639,    -0.01064,  -25.16660,    -7.78535,    +8.20664
  3136180045,   -0.01611,    -0.01416,    +1.02783,   -0.01277,    -0.00639,    -0.01171,  -25.16660,    -7.78535,    +8.20664
  3136190870,   -0.02246,    -0.01025,    +1.01953,   -0.01171,    -0.00851,    -0.00958,  -25.16660,    -7.78535,    +8.20664
  3136201695,   -0.02588,    -0.01709,    +1.03125,   -0.01171,    -0.00745,    -0.00639,  -25.16660,    -7.78535,    +8.20664
  3136212581,   -0.01904,    -0.01562,    +1.03271,   -0.01277,    -0.00958,    -0.01490,  -25.16660,    -7.78535,    +8.20664
  3136223407,   -0.01904,    -0.00586,    +1.04297,   -0.01596,    -0.00958,    -0.01064,  -25.16660,    -7.78535,    +8.20664
  3136234232,   -0.02979,    -0.01025,    +1.02197,   -0.01490,    -0.00532,    -0.01064,  -25.16660,    -7.78535,    +8.20664
  3136245060,   -0.01416,    -0.00977,    +1.03662,   -0.01916,    -0.00851,    -0.01383,  -25.16660,    -7.78535,    +8.20664
  3136255885,   -0.02734,    -0.01465,    +1.02930,   -0.01490,    -0.00426,    -0.00958,  -25.16660,    -7.78535,    +8.20664
  3136266711,   -0.01562,    -0.01074,    +1.03711,   -0.01277,    -0.00532,    -0.01064,  -25.16660,    -7.78535,    +8.20664
  3136277537,   -0.02002,    -0.00098,    +1.01611,   -0.01064,    -0.00426,    -0.00639,  -25.16660,    -7.78535,    +8.20664
  3136288364,   -0.01367,    -0.00195,    +1.02637,   -0.01277,    -0.00851,    -0.01171,  -25.16660,    -7.78535,    +8.20664
  3136299195,   -0.02393,    -0.01855,    +1.02881,   -0.01277,    -0.01171,    -0.01064,  -25.16660,    -7.78535,    +8.20664
  3136310022,   -0.02148,    -0.01465,    +1.01904,   -0.01809,    -0.01383,    -0.00958,  -25.16660,    -7.78535,    +8.20664
  3136320845,   -0.02197,    -0.00635,    +1.02832,   -0.01171,    -0.01171,    -0.01171,  -25.16660,    -7.78535,    +8.20664
  3136331672,   -0.01562,    -0.01074,    +1.01660,   -0.01383,    -0.00851,    -0.01171,  -23.17500,   -10.50117,    +6.63516
  3136342499,   -0.02246,    -0.01611,    +1.03076,   -0.01490,    -0.00958,    -0.00851,  -23.17500,   -10.50117,    +6.63516
  3136353328,   -0.01074,    -0.01514,    +1.01855,   -0.01277,    -0.00532,    -0.01277,  -23.17500,   -10.50117,    +6.63516
  3136364155,   -0.02246,    -0.01221,    +1.03174,   -0.01596,    -0.00532,    -0.01064,  -23.17500,   -10.50117,    +6.63516
  3136374983,   -0.02295,    -0.01074,    +1.03027,   -0.01703,    -0.00851,    -0.01277,  -23.17500,   -10.50117,    +6.63516
  3136385810,   -0.01611,    -0.00342,    +1.03711,   -0.01171,    -0.00745,    -0.00851,  -23.17500,   -10.50117,    +6.63516
  3136396637,   -0.01514,    -0.01074,    +1.02441,   -0.01490,    -0.00958,    -0.01277,  -23.17500,   -10.50117,    +6.63516
  3136407465,   -0.02539,    -0.01660,    +1.02783,   -0.01703,    -0.01277,    -0.01277,  -23.17500,   -10.50117,    +6.63516
  3136418294,   -0.01758,    -0.01074,    +1.01611,   -0.01383,    -0.00745,    -0.01277,  -23.17500,   -10.50117,    +6.63516
  3136429153,   -0.02002,    -0.02588,    +1.03467,   -0.01596,    -0.00958,    -0.01064,  -23.17500,   -10.50117,    +6.63516
  3136439980,   -0.02393,    -0.01807,    +1.03516,   -0.01490,    -0.01064,    -0.01171,  -23.17500,   -10.50117,    +6.63516
  3136450808,   -0.01416,    -0.00537,    +1.03174,   -0.01171,    -0.00958,    -0.01064,  -23.17500,   -10.50117,    +6.63516
  3136461635,   -0.01807,    -0.02197,    +1.03320,   -0.01703,    -0.00745,    -0.01064,  -23.17500,   -10.50117,    +6.63516
  3136472463,   -0.02197,    -0.01465,    +1.02881,   -0.01490,    -0.00532,    -0.01383,  -23.17500,   -10.50117,    +6.63516
  3136483292,   -0.01562,    -0.01709,    +1.04883,   -0.01064,    -0.01064,    -0.00639,  -23.17500,   -10.50117,    +6.63516
  3136494120,   -0.02246,    -0.00928,    +1.03027,   -0.01490,    -0.01064,    -0.01277,  -23.17500,   -10.50117,    +6.63516
  3136504948,   -0.01904,    -0.01318,    +1.02051,   -0.01490,    -0.00851,    -0.00958,  -23.17500,   -10.50117,    +6.63516
  3136515776,   -0.01758,    -0.01025,    +1.02100,   -0.01490,    -0.00639,    -0.00958,  -23.17500,   -10.50117,    +6.63516
  3136526601,   -0.01660,    -0.01025,    +1.02441,   -0.01064,    -0.00745,    -0.01277,  -23.17500,   -10.50117,    +6.63516
  3136537426,   -0.00928,    -0.00635,    +1.01953,   -0.01490,    -0.00426,    -0.01171,  -23.17500,   -10.50117,    +6.63516
  3136548255,   -0.01807,    -0.01025,    +1.03076,   -0.00958,    -0.00639,    -0.00851,  -23.17500,   -10.50117,    +6.63516
  3136559118,   -0.02197,    -0.01709,    +1.03174,   -0.01809,    -0.00639,    -0.00958,  -23.17500,   -10.50117,    +6.63516
  3136570006,   -0.02148,    -0.01270,    +1.02832,   -0.00851,    -0.00958,    -0.00958,  -23.17500,   -10.50117,    +6.63516
  3136580836,   -0.02197,    -0.01270,    +1.02148,   -0.01703,    -0.00958,    -0.01064,  -23.17500,   -10.50117,    +6.63516
  3136591663,   -0.02393,    -0.01172,    +1.02295,   -0.01596,    -0.00745,    -0.00532,  -23.17500,   -10.50117,    +6.63516
  3136602491,   -0.01758,    -0.00732,    +1.03027,   -0.01596,    -0.00639,    -0.01171,  -23.17500,   -10.50117,    +6.63516
  3136613321,   -0.01465,    -0.01318,    +1.03027,   -0.01703,    -0.01383,    -0.01383,  -23.17500,   -10.50117,    +6.63516
  3136624147,   -0.02002,    -0.01172,    +1.02393,   -0.01064,    -0.00532,    -0.00958,  -23.17500,   -10.50117,    +6.63516
  3136634977,   -0.01758,    -0.01562,    +1.02393,   -0.01277,    -0.01171,    -0.01916,  -23.17500,   -10.50117,    +6.63516
  3136645805,   -0.01904,    -0.00977,    +1.02246,   -0.01383,    -0.00958,    -0.01383,  -23.17500,   -10.50117,    +6.63516
  3136656632,   -0.01904,    -0.00635,    +1.03271,   -0.00851,    -0.00958,    -0.01171,  -23.17500,   -10.50117,    +6.63516
  3136667458,   -0.02051,    -0.01270,    +1.03125,   -0.01277,    -0.00958,    -0.01171,  -23.17500,   -10.50117,    +6.63516
  3136678287,   -0.01709,    -0.01172,    +1.03516,   -0.01171,    -0.00213,    -0.01596,  -23.17500,   -10.50117,    +6.63516
  3136689152,   -0.02246,    -0.00537,    +1.02734,   -0.01171,    -0.01064,    -0.00745,  -23.17500,   -10.50117,    +6.63516
  3136699980,   -0.01514,    -0.01172,    +1.02930,   -0.01383,    -0.01171,    -0.01383,  -24.62344,    -8.32852,    +6.98438
  3136710807,   -0.01758,    -0.01172,    +1.01904,   -0.01383,    -0.00851,    -0.00851,  -24.62344,    -8.32852,    +6.98438
  3136721633,   -0.02002,    -0.01123,    +1.03223,   -0.01383,    -0.00532,    -0.00958,  -24.62344,    -8.32852,    +6.98438
  3136732460,   -0.01807,    -0.01611,    +1.02393,   -0.00958,    -0.00532,    -0.00958,  -24.62344,    -8.32852,    +6.98438
  3136743285,   -0.02539,    -0.01416,    +1.03760,   -0.01277,    -0.01277,    -0.01064,  -24.62344,    -8.32852,    +6.98438
  3136754110,   -0.01855,    -0.01123,    +1.02148,   -0.01383,    -0.00851,    -0.00851,  -24.62344,    -8.32852,    +6.98438
  3136764937,   -0.01465,    -0.01074,    +1.02832,   -0.01490,    -0.00851,    -0.01277,  -24.62344,    -8.32852,    +6.98438
  3136775763,   -0.01611,    -0.01221,    +1.02490,   -0.01596,    -0.01064,    -0.01171,  -24.62344,    -8.32852,    +6.98438
  3136786588,   -0.02051,    -0.01611,    +1.05029,   -0.01064,    -0.00639,    -0.01171,  -24.62344,    -8.32852,    +6.98438
  3136797413,   -0.02100,    -0.01855,    +1.02783,   -0.01064,    -0.00745,    -0.01277,  -24.62344,    -8.32852,    +6.98438
  3136808239,   -0.02002,    -0.00635,    +1.02246,   -0.01490,    -0.00745,    -0.01171,  -24.62344,    -8.32852,    +6.98438
  3136819076,   -0.02197,    -0.01025,    +1.01807,   -0.00958,    -0.00851,    -0.01490,  -24.62344,    -8.32852,    +6.98438
  3136829902,   -0.01709,    -0.01172,    +1.02783,   -0.01277,    -0.00639,    -0.01277,  -25.89082,    -8.50957,    +6.46055
  3136840729,   -0.01611,    -0.00586,    +1.03174,   -0.01596,    -0.00851,    -0.01064,  -25.89082,    -8.50957,    +6.46055
  3136851555,   -0.01074,    -0.01611,    +1.03125,   -0.01490,    -0.00639,    -0.01383,  -25.89082,    -8.50957,    +6.46055
  3136862380,   -0.02393,    -0.01123,    +1.03516,   -0.01277,    -0.00745,    -0.01064,  -25.89082,    -8.50957,    +6.46055
  3136873205,   -0.01562,    -0.01318,    +1.02832,   -0.01596,    -0.01064,    -0.00851,  -25.89082,    -8.50957,    +6.46055
  3136884031,   -0.01367,    -0.00781,    +1.02051,   -0.01171,    -0.01277,    -0.01064,  -25.89082,    -8.50957,    +6.46055
  3136894856,   -0.01611,    -0.01855,    +1.02734,   -0.01596,    -0.00426,    -0.01596,  -25.89082,    -8.50957,    +6.46055
  3136905679,   -0.02783,    -0.01172,    +1.02197,   -0.01703,    -0.00958,    -0.01171,  -25.89082,    -8.50957,    +6.46055
  3136916565,   -0.02148,    -0.01172,    +1.02197,   -0.01490,    -0.00851,    -0.01064,  -25.89082,    -8.50957,    +6.46055
  3136927391,   -0.01855,    -0.01465,    +1.02930,   -0.00958,    -0.00213,    -0.01171,  -25.89082,    -8.50957,    +6.46055
  3136938217,   -0.02148,    -0.01807,    +1.02588,   -0.01596,    -0.00532,    -0.00958,  -25.89082,    -8.50957,    +6.46055
  3136949082,   -0.02246,    -0.01172,    +1.03564,   -0.01064,    -0.01171,    -0.01064,  -25.89082,    -8.50957,    +6.46055
  3136959906,   -0.01611,    -0.01758,    +1.02295,   -0.01277,    -0.00639,    -0.01490,  -25.89082,    -8.50957,    +6.46055
  3136970730,   -0.01758,    -0.00781,    +1.02148,   -0.01064,    -0.01064,    -0.00958,  -25.89082,    -8.50957,    +6.46055
  3136981557,   -0.01807,    -0.01123,    +1.02881,   -0.01703,    -0.01277,    -0.01064,  -25.89082,    -8.50957,    +6.46055
  3136992381,   -0.01758,    -0.01611,    +1.01709,   -0.01171,    -0.00745,    -0.01064,  -25.89082,    -8.50957,    +6.46055
  3137003206,   -0.01660,    -0.00781,    +1.03564,   -0.01490,    -0.01171,    -0.01064,  -25.89082,    -8.50957,    +6.46055
  3137014030,   -0.02783,    -0.00293,    +1.03027,   -0.01383,    -0.01064,    -0.01171,  -25.89082,    -8.50957,    +6.46055
  3137024856,   -0.01758,    -0.00928,    +1.03564,   -0.01277,    -0.00532,    -0.00851,  -25.89082,    -8.50957,    +6.46055
  3137035682,   -0.01758,    -0.01123,    +1.02979,   -0.01383,    -0.01064,    -0.01064,  -25.89082,    -8.50957,    +6.46055
  3137046506,   -0.02393,    -0.01025,    +1.02393,   -0.01383,    -0.00532,    -0.01171,  -25.89082,    -8.50957,    +6.46055
  3137057329,   -0.02783,    -0.01221,    +1.02295,   -0.01171,    -0.00851,    -0.00745,  -25.89082,    -8.50957,    +6.46055
  3137068156,   -0.01172,    -0.01562,    +1.04053,   -0.02022,    -0.00851,    -0.01277,  -25.89082,    -8.50957,    +6.46055
  3137079008,   -0.02051,    -0.01025,    +1.03125,   -0.01383,    -0.00426,    -0.00958,  -25.89082,    -8.50957,    +6.46055
  3137089833,   -0.01025,    -0.01270,    +1.02100,   -0.01490,    -0.00745,    -0.01064,  -25.89082,    -8.50957,    +6.46055
  3137100657,   -0.01465,    -0.01465,    +1.03125,   -0.01277,    -0.00958,    -0.00851,  -25.89082,    -8.50957,    +6.46055
  3137111481,   -0.01709,    -0.01709,    +1.02686,   -0.01916,    -0.00319,    -0.01064,  -25.89082,    -8.50957,    +6.46055
  3137122307,   -0.02441,    -0.01221,    +1.02148,   -0.01383,    -0.01383,    -0.00958,  -25.89082,    -8.50957,    +6.46055
  3137133131,   -0.02051,    -0.00781,    +1.02393,   -0.01383,    -0.00745,    -0.00958,  -25.89082,    -8.50957,    +6.46055
  3137143963,   -0.01758,    -0.02100,    +1.03027,   -0.01596,    -0.00639,    -0.01171,  -25.89082,    -8.50957,    +6.46055
  3137154786,   -0.02490,    -0.01270,    +1.02246,   -0.01703,    -0.00745,    -0.01277,  -25.89082,    -8.50957,    +6.46055
  3137165612,   -0.01807,    -0.00977,    +1.02637,   -0.01383,    -0.00639,    -0.00958,  -25.89082,    -8.50957,    +6.46055
  3137176439,   -0.02588,    -0.01270,    +1.01855,   -0.01171,    -0.01171,    -0.01490,  -25.89082,    -8.50957,    +6.46055
  3137187264,   -0.01660,    -0.00879,    +1.02295,   -0.01171,    -0.01064,    -0.01064,  -25.89082,    -8.50957,    +6.46055
  3137198090,   -0.01416,    -0.00928,    +1.02197,   -0.01703,    -0.00958,    -0.00958,  -22.99395,    -9.59590,    +6.46055
  3137208916,   -0.02100,    -0.01807,    +1.02979,   -0.01383,    -0.00958,    -0.00851,  -22.99395,    -9.59590,    +6.46055
  3137219742,   -0.02002,    -0.01416,    +1.02783,   -0.01277,    -0.00851,    -0.00958,  -22.99395,    -9.59590,    +6.46055
  3137230567,   -0.02148,    -0.00977,    +1.02246,   -0.01277,    -0.00745,    -0.01383,  -22.99395,    -9.59590,    +6.46055
  3137241396,   -0.01807,    -0.00732,    +1.02051,   -0.01703,    -0.00639,    -0.01171,  -22.99395,    -9.59590,    +6.46055
  3137252222,   -0.01611,    -0.02002,    +1.02539,   -0.01916,    -0.00745,    -0.01064,  -22.99395,    -9.59590,    +6.46055
  3137263109,   -0.01660,    -0.01660,    +1.01660,   -0.01703,    -0.00426,    -0.01383,  -22.99395,    -9.59590,    +6.46055
  3137273936,   -0.02490,    -0.00635,    +1.03271,   -0.01171,    -0.00851,    -0.01171,  -22.99395,    -9.59590,    +6.46055
  3137284764,   -0.02246,    -0.01172,    +1.03125,   -0.01277,    -0.00745,    -0.01277,  -22.99395,    -9.59590,    +6.46055
  3137295590,   -0.02832,    -0.02100,    +1.04199,   -0.01171,    -0.00745,    -0.00851,  -22.99395,    -9.59590,    +6.46055
  3137306417,   -0.02344,    -0.01270,    +1.01562,   -0.01703,    -0.00319,    -0.01064,  -22.99395,    -9.59590,    +6.46055
  3137317244,   -0.01318,    -0.01074,    +1.02393,   -0.01703,    -0.00851,    -0.01171,  -22.99395,    -9.59590,    +6.46055
  3137328069,   -0.02295,    -0.01074,    +1.02734,   -0.01171,    -0.01064,    -0.00745,  -22.99395,    -9.59590,    +6.46055
  3137338895,   -0.01855,    -0.01172,    +1.02100,   -0.01703,    -0.01064,    -0.01277,  -22.99395,    -9.59590,    +6.46055
  3137349720,   -0.02393,    -0.01807,    +1.02979,   -0.01383,    -0.01383,    -0.00851,  -22.99395,    -9.59590,    +6.46055
  3137360547,   -0.01514,    -0.02148,    +1.02881,   -0.01809,    -0.01277,    -0.01064,  -22.99395,    -9.59590,    +6.46055
  3137371374,   -0.02441,    -0.00439,    +1.02734,   -0.01490,    -0.01064,    -0.01383,  -22.99395,    -9.59590,    +6.46055
  3137382201,   -0.02930,    -0.01758,    +1.02295,   -0.01596,    -0.01064,    -0.01277,  -22.99395,    -9.59590,    +6.46055
  3137393034,   -0.02441,    -0.01270,    +1.01807,   -0.01171,    -0.00639,    -0.00851,  -22.99395,    -9.59590,    +6.46055
  3137403858,   -0.02100,    -0.01123,    +1.03369,   -0.01171,    -0.00532,    -0.01171,  -22.99395,    -9.59590,    +6.46055
  3137414684,   -0.01758,    -0.00732,    +1.02979,   -0.01277,    -0.01171,    -0.01490,  -22.99395,    -9.59590,    +6.46055
  3137425511,   -0.01855,    -0.00342,    +1.02246,   -0.01171,    -0.00851,    -0.00851,  -22.99395,    -9.59590,    +6.46055
  3137436338,   -0.02441,    -0.01270,    +1.02686,   -0.01383,    -0.00745,    -0.01171,  -22.99395,    -9.59590,    +6.46055
  3137447164,   -0.02148,    -0.01221,    +1.02783,   -0.01277,    -0.01171,    -0.01064,  -22.99395,    -9.59590,    +6.46055
  3137457988,   -0.02295,    -0.01025,    +1.02783,   -0.01596,    -0.00426,    -0.01171,  -22.99395,    -9.59590,    +6.46055
  3137468815,   -0.02148,    -0.02393,    +1.02637,   -0.00851,    -0.00532,    -0.01490,  -22.99395,    -9.59590,    +6.46055
  3137479641,   -0.02148,    -0.02002,    +1.01123,   -0.01596,    -0.01171,    -0.01383,  -22.99395,    -9.59590,    +6.46055
  3137490465,   -0.02344,    -0.01660,    +1.02686,   -0.01596,    -0.01277,    -0.00532,  -22.99395,    -9.59590,    +6.46055
  3137501293,   -0.02686,    -0.01904,    +1.03516,   -0.01277,    -0.00958,    -0.01064,  -22.99395,    -9.59590,    +6.46055
  3137512120,   -0.01904,    -0.01416,    +1.01807,   -0.01809,    -0.00851,    -0.01171,  -22.99395,    -9.59590,    +6.46055
  3137522946,   -0.02197,    -0.01709,    +1.02295,   -0.00958,    -0.00745,    -0.01490,  -22.99395,    -9.59590,    +6.46055
  3137533771,   -0.02148,    -0.01221,    +1.03223,   -0.02022,    -0.01171,    -0.01490,  -22.99395,    -9.59590,    +6.46055
  3137544599,   -0.01807,    -0.01562,    +1.01855,   -0.01064,    -0.00851,    -0.01171,  -22.99395,    -9.59590,    +6.46055
  3137555424,   -0.01562,    -0.00879,    +1.02148,   -0.01596,    -0.00958,    -0.01064,  -22.99395,    -9.59590,    +6.46055
  3137566250,   -0.02295,    -0.00977,    +1.02002,   -0.01383,    -0.01064,    -0.01064,  -22.99395,    -9.59590,    +6.46055
  3137577078,   -0.01904,    -0.00684,    +1.02441,   -0.01490,    -0.00958,    -0.01171,  -24.08027,    -9.23379,    +7.50820
  3137587904,   -0.01855,    -0.01318,    +1.03467,   -0.01809,    -0.00745,    -0.00958,  -24.08027,    -9.23379,    +7.50820
  3137598732,   -0.02393,    -0.01660,    +1.03613,   -0.01490,    -0.00958,    -0.01064,  -24.08027,    -9.23379,    +7.50820
  3137609616,   -0.02979,    -0.00928,    +1.02686,   -0.01490,    -0.00745,    -0.01064,  -24.08027,    -9.23379,    +7.50820
  3137620441,   -0.01367,    -0.01123,    +1.01367,   -0.01809,    -0.00639,    -0.01171,  -24.08027,    -9.23379,    +7.50820
  3137631266,   -0.02246,    -0.01904,    +1.03613,   -0.01277,    -0.00745,    -0.01171,  -24.08027,    -9.23379,    +7.50820
  3137642092,   -0.02588,    -0.01270,    +1.03271,   -0.01490,    -0.00958,    -0.01383,  -24.08027,    -9.23379,    +7.50820
  3137652918,   -0.01611,    -0.01172,    +1.02295,   -0.01490,    -0.00639,    -0.01171,  -24.08027,    -9.23379,    +7.50820
  3137663744,   -0.02490,    -0.00195,    +1.02588,   -0.01064,    -0.01064,    -0.01064,  -24.08027,    -9.23379,    +7.50820
  3137674571,   -0.02100,    -0.00684,    +1.02686,   -0.01277,    -0.00851,    -0.01064,  -24.08027,    -9.23379,    +7.50820
  3137685398,   -0.01709,    -0.01172,    +1.01758,   -0.01596,    -0.00532,    -0.01277,  -24.08027,    -9.23379,    +7.50820
  3137696221,   -0.02686,    -0.01074,    +1.03320,   -0.01383,    -0.01064,    -0.01171,  -24.26133,    -8.69063,    +4.88906
  3137707046,   -0.01123,    -0.00049,    +1.02588,   -0.01064,    -0.01171,    -0.01064,  -24.26133,    -8.69063,    +4.88906
  3137717870,   -0.02051,    -0.00977,    +1.03760,   -0.01383,    -0.01383,    -0.01064,  -24.26133,    -8.69063,    +4.88906
  3137728698,   -0.01514,    -0.01270,    +1.03076,   -0.00851,    -0.00639,    -0.00851,  -24.26133,    -8.69063,    +4.88906
  3137739523,   -0.02246,    -0.01318,    +1.02197,   -0.01809,    -0.00851,    -0.00958,  -24.26133,    -8.69063,    +4.88906
  3137750350,   -0.02002,    -0.01221,    +1.03076,   -0.01596,    -0.00639,    -0.01064,  -24.26133,    -8.69063,    +4.88906
  3137761176,   -0.01709,    -0.00977,    +1.02539,   -0.01383,    -0.00958,    -0.00851,  -24.26133,    -8.69063,    +4.88906
  3137772002,   -0.01318,    -0.01025,    +1.01709,   -0.00958,    -0.01490,    -0.01383,  -24.26133,    -8.69063,    +4.88906
  3137782909,   -0.02148,    -0.01123,    +1.02783,   -0.01171,    -0.01171,    -0.01383,  -24.26133,    -8.69063,    +4.88906
  3137793777,   -0.02051,    -0.01562,    +1.03711,   -0.01490,    -0.00745,    -0.00851,  -24.26133,    -8.69063,    +4.88906
  3137804618,   -0.02051,    -0.01123,    +1.02686,   -0.01490,    -0.00958,    -0.01171,  -24.26133,    -8.69063,    +4.88906
  3137815453,   -0.02295,    -0.00293,    +1.04199,   -0.01596,    -0.00745,    -0.00851,  -24.26133,    -8.69063,    +4.88906
  3137826289,   -0.02295,    -0.00928,    +1.02930,   -0.00958,    -0.00745,    -0.01171,  -24.26133,    -8.69063,    +4.88906
  3137837130,   -0.02051,    -0.01123,    +1.02490,   -0.01064,    -0.00639,    -0.01171,  -24.26133,    -8.69063,    +4.88906
  3137847697,   -0.02344,    -0.01416,    +1.02930,   -0.01916,    -0.01064,    -0.01277,  -24.26133,    -8.69063,    +4.88906
  3137858236,   -0.02148,    -0.01172,    +1.03076,   -0.01596,    -0.00745,    -0.01171,  -24.26133,    -8.69063,    +4.88906
  3137868776,   -0.01904,    -0.01758,    +1.02979,   -0.01809,    -0.00745,    -0.01064,  -24.26133,    -8.69063,    +4.88906
  3137879315,   -0.02002,    -0.01855,    +1.00928,   -0.01171,    -0.00532,    -0.00851,  -24.26133,    -8.69063,    +4.88906
  3137889858,   -0.01514,    -0.01270,    +1.01562,   -0.01383,    -0.01171,    -0.01171,  -24.26133,    -8.69063,    +4.88906
  3137900406,   -0.01807,    -0.02246,    +1.00977,   -0.01383,    -0.01383,    -0.00851,  -24.26133,    -8.69063,    +4.88906
  3137910946,   -0.02734,    -0.01270,    +1.02637,   -0.01490,    -0.01171,    -0.01064,  -24.26133,    -8.69063,    +4.88906
  3137921518,   -0.02148,    -0.00537,    +1.02539,   -0.01490,    -0.01064,    -0.01171,  -24.26133,    -8.69063,    +4.88906
  3137932058,   -0.01660,    -0.01025,    +1.03174,   -0.01703,    -0.00958,    -0.00745,  -24.26133,    -8.69063,    +4.88906
  3137942597,   -0.02734,    -0.01123,    +1.03027,   -0.01703,    -0.00958,    -0.01703,  -24.26133,    -8.69063,    +4.88906
  3137953436,   -0.02100,    -0.01025,    +1.03076,   -0.01809,    -0.00639,    -0.01171,  -24.26133,    -8.69063,    +4.88906
  3137964382,   -0.02002,    -0.01709,    +1.01709,   -0.01490,    -0.00745,    -0.01490,  -24.26133,    -8.69063,    +4.88906
  3137975236,   -0.02148,    -0.01562,    +1.02930,   -0.01383,    -0.00639,    -0.01064,  -24.26133,    -8.69063,    +4.88906
  3137986153,   -0.02490,    -0.01318,    +1.02783,   -0.02022,    -0.00319,    -0.00958,  -24.26133,    -8.69063,    +4.88906
  3137997005,   -0.01855,    -0.00732,    +1.01953,   -0.01703,    -0.00745,    -0.01277,  -24.26133,    -8.69063,    +4.88906
  3138007834,   -0.01074,    -0.01562,    +1.02686,   -0.01809,    -0.01064,    -0.01171,  -24.26133,    -8.69063,    +4.88906
  3138018696,   -0.01318,    -0.00635,    +1.03613,   -0.01171,    -0.01171,    -0.01064,  -24.26133,    -8.69063,    +4.88906
  3138029526,   -0.01758,    -0.01221,    +1.02002,   -0.01490,    -0.00851,    -0.01383,  -24.26133,    -8.69063,    +4.88906
  3138040366,   -0.01562,    -0.00537,    +1.03271,   -0.01490,    -0.00851,    -0.00851,  -24.26133,    -8.69063,    +4.88906
  3138051233,   -0.01416,    -0.01611,    +1.03125,   -0.01596,    -0.00639,    -0.00958,  -24.26133,    -8.69063,    +4.88906
  3138062090,   -0.01709,    -0.01855,    +1.02588,   -0.01383,    -0.00745,    -0.01383,  -24.26133,    -8.69063,    +4.88906
  3138072918,   -0.02051,    -0.01611,    +1.01807,   -0.01596,    -0.00851,    -0.01064,  -23.71816,    -8.87168,    +6.11133
  3138083760,   -0.01562,    -0.02002,    +1.02393,   -0.01383,    -0.01064,    -0.00958,  -23.71816,    -8.87168,    +6.11133
  3138094609,   -0.01562,    -0.01660,    +1.03027,   -0.01596,    -0.00639,    -0.01064,  -23.71816,    -8.87168,    +6.11133
  3138105437,   -0.02393,    -0.01318,    +1.02930,   -0.01596,    -0.01064,    -0.01171,  -23.71816,    -8.87168,    +6.11133
  3138116317,   -0.01660,    -0.01855,    +1.02588,   -0.01596,    -0.01064,    -0.01064,  -23.71816,    -8.87168,    +6.11133
  3138127161,   -0.01904,    -0.00781,    +1.02881,   -0.01064,    -0.01171,    -0.01277,  -23.71816,    -8.87168,    +6.11133
  3138138008,   -0.02344,    -0.01172,    +1.01953,   -0.01383,    -0.00851,    -0.00745,  -23.71816,    -8.87168,    +6.11133
  3138148855,   -0.02490,    -0.01709,    +1.04004,   -0.01809,    -0.00745,    -0.01490,  -23.71816,    -8.87168,    +6.11133
  3138159743,   -0.01123,    -0.01074,    +1.01123,   -0.01703,    -0.01171,    -0.01171,  -23.71816,    -8.87168,    +6.11133
  3138170584,   -0.01758,    -0.00488,    +1.02881,   -0.01490,    -0.00851,    -0.01064,  -23.71816,    -8.87168,    +6.11133
  3138181456,   -0.02881,    -0.00879,    +1.03955,   -0.01703,    -0.00532,    -0.00958,  -23.71816,    -8.87168,    +6.11133
  3138192302,   -0.01416,    -0.00732,    +1.02881,   -0.01490,    -0.00639,    -0.00958,  -23.71816,    -8.87168,    +6.11133
  3138203130,   -0.02197,    -0.01270,    +1.03320,   -0.01916,    -0.00958,    -0.01064,  -24.98555,   -10.50117,    +6.98438
  3138213984,   -0.02393,    -0.00293,    +1.01904,   -0.01383,    -0.01064,    -0.01171,  -24.98555,   -10.50117,    +6.98438
  3138224835,   -0.01660,    -0.00537,    +1.03076,   -0.01490,    -0.00851,    -0.01277,  -24.98555,   -10.50117,    +6.98438
  3138235689,   -0.01074,    -0.01221,    +1.02881,   -0.01171,    -0.00851,    -0.01171,  -24.98555,   -10.50117,    +6.98438
  3138246556,   -0.01172,    -0.01318,    +1.03516,   -0.01809,    -0.00958,    -0.01277,  -24.98555,   -10.50117,    +6.98438
  3138257416,   -0.01221,    -0.00537,    +1.01465,   -0.01596,    -0.01277,    -0.00851,  -24.98555,   -10.50117,    +6.98438
  3138268246,   -0.02490,    -0.01514,    +1.02441,   -0.01064,    -0.01064,    -0.01277,  -24.98555,   -10.50117,    +6.98438
  3138279145,   -0.01318,    -0.01318,    +1.02783,   -0.01596,    -0.00426,    -0.01171,  -24.98555,   -10.50117,    +6.98438
  3138290009,   -0.02002,    -0.01074,    +1.02734,   -0.01383,    -0.01064,    -0.00745,  -24.98555,   -10.50117,    +6.98438
  3138300845,   -0.01221,    -0.01514,    +1.04443,   -0.01064,    -0.01277,    -0.00958,  -24.98555,   -10.50117,    +6.98438
  3138311804,   -0.01904,    -0.01221,    +1.03906,   -0.01171,    -0.00532,    -0.00745,  -24.98555,   -10.50117,    +6.98438
  3138322672,   -0.01172,    -0.01318,    +1.03369,   -0.01383,    -0.01171,    -0.01383,  -24.98555,   -10.50117,    +6.98438
  3138333512,   -0.02002,    -0.00928,    +1.02441,   -0.01490,    -0.01277,    -0.01171,  -24.98555,   -10.50117,    +6.98438
  3138344358,   -0.01562,    -0.01807,    +1.02246,   -0.01383,    -0.00426,    -0.01383,  -24.98555,   -10.50117,    +6.98438
  3138355188,   -0.01221,    -0.01270,    +1.02148,   -0.01703,    -0.00639,    -0.00958,  -24.98555,   -10.50117,    +6.98438
  3138366037,   -0.01123,    -0.00879,    +1.03564,   -0.01383,    -0.01277,    -0.00639,  -24.98555,   -10.50117,    +6.98438
  3138376868,   -0.01611,    -0.00586,    +1.02930,   -0.01277,    -0.00851,    -0.00745,  -24.98555,   -10.50117,    +6.98438
  3138387700,   -0.01562,    -0.01855,    +1.03223,   -0.01490,    -0.00532,    -0.01277,  -24.98555,   -10.50117,    +6.98438
  3138398640,   -0.02686,    -0.01221,    +1.02734,   -0.01596,    -0.00851,    -0.01064,  -24.98555,   -10.50117,    +6.98438
  3138409531,   -0.02344,    -0.01514,    +1.02490,   -0.01171,    -0.00851,    -0.01171,  -24.98555,   -10.50117,    +6.98438
  3138420369,   -0.01416,    -0.00488,    +1.03223,   -0.01383,    -0.00851,    -0.01064,  -24.98555,   -10.50117,    +6.98438
  3138431227,   -0.01855,    -0.01807,    +1.03613,   -0.01383,    -0.00851,    -0.00851,  -24.98555,   -10.50117,    +6.98438
  3138442118,   -0.02881,    -0.00732,    +1.02979,   -0.00958,    -0.00851,    -0.01277,  -24.98555,   -10.50117,    +6.98438
  3138452948,   -0.02246,    -0.01807,    +1.02686,   -0.01383,    -0.00745,    -0.01171,  -24.98555,   -10.50117,    +6.98438
  3138463778,   -0.02100,    -0.01025,    +1.02930,   -0.01490,    -0.00426,    -0.01277,  -24.98555,   -10.50117,    +6.98438
  3138474652,   -0.02148,    -0.01270,    +1.03076,   -0.01383,    -0.01171,    -0.01064,  -24.98555,   -10.50117,    +6.98438
  3138485483,   -0.02588,    -0.00781,    +1.02832,   -0.01277,    -0.00639,    -0.01277,  -24.98555,   -10.50117,    +6.98438
  3138496330,   -0.02051,    -0.01172,    +1.03027,   -0.01171,    -0.00639,    -0.00851,  -24.98555,   -10.50117,    +6.98438
  3138507199,   -0.01221,    -0.01855,    +1.02881,   -0.01490,    -0.00958,    -0.01171,  -24.98555,   -10.50117,    +6.98438
  3138518028,   -0.01660,    -0.00781,    +1.03906,   -0.01383,    -0.00532,    -0.00851,  -24.98555,   -10.50117,    +6.98438
  3138528872,   -0.02148,    -0.00684,    +1.02441,   -0.01277,    -0.00851,    -0.00851,  -24.98555,   -10.50117,    +6.98438
  3138539734,   -0.02002,    -0.00928,    +1.03516,   -0.01383,    -0.00958,    -0.00745,  -24.98555,   -10.50117,    +6.98438
  3138550581,   -0.02148,    -0.01172,    +1.02588,   -0.01490,    -0.00851,    -0.01383,  -24.98555,   -10.50117,    +6.98438
  3138561421,   -0.02490,    -0.01611,    +1.02051,   -0.01490,    -0.00851,    -0.01171,  -24.98555,   -10.50117,    +6.98438
  3138572256,   -0.02295,    -0.01611,    +1.03369,   -0.01383,    -0.01277,    -0.01171,  -25.52871,    -9.59590,    +6.46055
  3138583087,   -0.02393,    -0.00879,    +1.03174,   -0.01277,    -0.00426,    -0.01383,  -25.52871,    -9.59590,    +6.46055
  3138593944,   -0.01758,    -0.00391,    +1.02100,   -0.01490,    -0.01277,    -0.01277,  -25.52871,    -9.59590,    +6.46055
  3138604773,   -0.01855,    -0.01904,    +1.03467,   -0.01703,    -0.00426,    -0.01383,  -25.52871,    -9.59590,    +6.46055
  3138615622,   -0.01074,    -0.00732,    +1.02295,   -0.01596,    -0.00639,    -0.01383,  -25.52871,    -9.59590,    +6.46055
  3138626485,   -0.01221,    -0.01855,    +1.03027,   -0.01490,    -0.00426,    -0.01277,  -25.52871,    -9.59590,    +6.46055
  3138637323,   -0.02051,    -0.00342,    +1.02539,   -0.01383,    -0.00745,    -0.01596,  -25.52871,    -9.59590,    +6.46055
  3138648176,   -0.03174,    -0.01270,    +1.02100,   -0.01490,    -0.00851,    -0.00851,  -25.52871,    -9.59590,    +6.46055
  3138659142,   -0.01074,    -0.01025,    +1.03564,   -0.01490,    -0.01064,    -0.00958,  -25.52871,    -9.59590,    +6.46055
  3138669970,   -0.01709,    -0.02295,    +1.03125,   -0.01916,    -0.00532,    -0.00745,  -25.52871,    -9.59590,    +6.46055
  3138680815,   -0.02197,    -0.01465,    +1.03027,   -0.01703,    -0.00958,    -0.00958,  -25.52871,    -9.59590,    +6.46055
  3138691680,   -0.02246,    -0.01025,    +1.01367,   -0.01703,    -0.00639,    -0.01596,  -25.52871,    -9.59590,    +6.46055
  3138702508,   -0.02246,    -0.01660,    +1.04150,   -0.01703,    -0.00851,    -0.01064,  -24.44238,    -8.50957,    +6.11133
  3138713410,   -0.01416,    -0.00586,    +1.02637,   -0.01171,    -0.00745,    -0.01064,  -24.44238,    -8.50957,    +6.11133
  3138724279,   -0.01758,    -0.01221,    +1.03662,   -0.01171,    -0.00958,    -0.01064,  -24.44238,    -8.50957,    +6.11133
  3138735108,   -0.02441,    -0.01270,    +1.03760,   -0.01383,    -0.00745,    -0.01383,  -24.44238,    -8.50957,    +6.11133
  3138745981,   -0.02246,    -0.01172,    +1.02539,   -0.01490,    -0.01171,    -0.01383,  -24.44238,    -8.50957,    +6.11133
  3138756809,   -0.03223,    -0.01025,    +1.02246,   -0.01703,    -0.00639,    -0.01064,  -24.44238,    -8.50957,    +6.11133
  3138767641,   -0.02197,    -0.01514,    +1.02930,   -0.01596,    -0.00426,    -0.01171,  -24.44238,    -8.50957,    +6.11133
  3138778513,   -0.01562,    -0.01514,    +1.02588,   -0.01383,    -0.00639,    -0.00851,  -24.44238,    -8.50957,    +6.11133
  3138789344,   -0.02148,    -0.01123,    +1.01562,   -0.01703,    -0.00745,    -0.00958,  -24.44238,    -8.50957,    +6.11133
  3138800194,   -0.01855,    -0.01318,    +1.01562,   -0.01277,    -0.00851,    -0.01064,  -24.44238,    -8.50957,    +6.11133
  3138811059,   -0.02100,    -0.02100,    +1.02393,   -0.01703,    -0.00851,    -0.01064,  -24.44238,    -8.50957,    +6.11133
  3138821925,   -0.02295,    -0.01660,    +1.03125,   -0.01064,    -0.00639,    -0.00745,  -24.44238,    -8.50957,    +6.11133
  3138832759,   -0.01904,    -0.01172,    +1.04150,   -0.01809,    -0.00851,    -0.00851,  -24.44238,    -8.50957,    +6.11133
  3138843623,   -0.02148,    -0.01221,    +1.01953,   -0.01171,    -0.00851,    -0.00958,  -24.44238,    -8.50957,    +6.11133
  3138854461,   -0.02051,    -0.01172,    +1.02441,   -0.02128,    -0.00745,    -0.01064,  -24.44238,    -8.50957,    +6.11133
  3138865289,   -0.02051,    -0.00781,    +1.03076,   -0.01383,    -0.01171,    -0.00958,  -24.44238,    -8.50957,    +6.11133
  3138876136,   -0.02393,    -0.01123,    +1.02441,   -0.00745,    -0.01064,    -0.01596,  -24.44238,    -8.50957,    +6.11133
  3138886991,   -0.02490,    -0.01709,    +1.02979,   -0.01277,    -0.01171,    -0.01490,  -24.44238,    -8.50957,    +6.11133
  3138897862,   -0.01758,    -0.00537,    +1.02393,   -0.01277,    -0.00958,    -0.01171,  -24.44238,    -8.50957,    +6.11133
  3138908750,   -0.01855,    -0.01562,    +1.01953,   -0.01490,    -0.00745,    -0.01064,  -24.44238,    -8.50957,    +6.11133
  3138919590,   -0.02002,    -0.01855,    +1.04297,   -0.01596,    -0.00958,    -0.01383,  -24.44238,    -8.50957,    +6.11133
  3138930420,   -0.01660,    -0.00635,    +1.01318,   -0.01171,    -0.00958,    -0.01277,  -24.44238,    -8.50957,    +6.11133
  3138941313,   -0.02393,    -0.01172,    +1.03857,   -0.00958,    -0.00745,    -0.00639,  -24.44238,    -8.50957,    +6.11133
  3138952142,   -0.01367,    -0.01318,    +1.03027,   -0.01171,    -0.00958,    -0.01383,  -24.44238,    -8.50957,    +6.11133
  3138962996,   -0.02100,    -0.00488,    +1.02637,   -0.01490,    -0.00851,    -0.00851,  -24.44238,    -8.50957,    +6.11133
  3138973867,   -0.02393,    -0.00488,    +1.01953,   -0.01490,    -0.01171,    -0.01064,  -24.44238,    -8.50957,    +6.11133
  3138984695,   -0.01904,    -0.00684,    +1.01270,   -0.01596,    -0.00851,    -0.01064,  -24.44238,    -8.50957,    +6.11133
  3138995552,   -0.01611,    -0.01416,    +1.01660,   -0.01383,    -0.00958,    -0.01277,  -24.44238,    -8.50957,    +6.11133
  3139006494,   -0.01709,    -0.00684,    +1.03320,   -0.01809,    -0.00958,    -0.01064,  -24.44238,    -8.50957,    +6.11133
  3139017324,   -0.02441,    -0.00342,    +1.01855,   -0.01171,    -0.01171,    -0.01064,  -24.44238,    -8.50957,    +6.11133
  3139028178,   -0.02197,    -0.01807,    +1.01123,   -0.01703,    -0.00958,    -0.01064,  -24.44238,    -8.50957,    +6.11133
  3139039067,   -0.01709,    -0.00391,    +1.02295,   -0.01064,    -0.00851,    -0.01064,  -24.44238,    -8.50957,    +6.11133
  3139049913,   -0.02588,    -0.02246,    +1.03125,   -0.01383,    -0.01064,    -0.01171,  -24.44238,    -8.50957,    +6.11133
  3139060794,   -0.02344,    -0.00879,    +1.01709,   -0.01596,    -0.00532,    -0.00745,  -24.44238,    -8.50957,    +6.11133
  3139071674,   -0.01611,    -0.01074,    +1.02930,   -0.01171,    -0.01064,    -0.01383,  -24.44238,    -8.50957,    +6.11133
  3139082502,   -0.02197,    -0.00977,    +1.01514,   -0.01809,    -0.00745,    -0.01171,  -24.44238,    -8.50957,    +6.11133
  3139093345,   -0.03564,    -0.00781,    +1.02734,   -0.01171,    -0.00639,    -0.00958,  -24.44238,    -8.50957,    +6.11133
  3139104225,   -0.02100,    -0.01074,    +1.03857,   -0.01596,    -0.01277,    -0.01277,  -24.44238,    -8.50957,    +6.11133
  3139115054,   -0.02100,    -0.01709,    +1.02100,   -0.01490,    -0.01171,    -0.01277,  -24.44238,    -8.50957,    +6.11133
  3139125882,   -0.01758,    -0.01074,    +1.02979,   -0.01171,    -0.00213,    -0.01064,  -24.44238,    -8.50957,    +6.11133
  3139136756,   -0.01904,    -0.00342,    +1.03271,   -0.01490,    -0.00639,    -0.01171,  -24.44238,    -8.50957,    +6.11133
  3139147585,   -0.02393,    -0.01416,    +1.01904,   -0.01383,    -0.01171,    -0.00958,  -24.44238,    -8.50957,    +6.11133
  3139158428,   -0.00977,    -0.00732,    +1.03174,   -0.01703,    -0.00851,    -0.01277,  -24.44238,    -8.50957,    +6.11133
  3139169311,   -0.02393,    -0.01416,    +1.03174,   -0.01703,    -0.00639,    -0.01277,  -24.44238,    -8.50957,    +6.11133
  3139180163,   -0.01855,    -0.02002,    +1.03174,   -0.01383,    -0.00745,    -0.01171,  -24.44238,    -8.50957,    +6.11133
  3139191039,   -0.02783,    -0.01123,    +1.02490,   -0.01490,    -0.01277,    -0.01064,  -24.44238,    -8.50957,    +6.11133
  3139201950,   -0.01611,    -0.01660,    +1.02930,   -0.01383,    -0.01064,    -0.01490,  -22.45078,    -8.32852,    +6.63516
  3139212778,   -0.02490,    -0.01172,    +1.02832,   -0.01383,    -0.00639,    -0.00958,  -22.45078,    -8.32852,    +6.63516
  3139223620,   -0.02197,    -0.00684,    +1.03320,   -0.01490,    -0.00639,    -0.01064,  -22.45078,    -8.32852,    +6.63516
  3139234448,   -0.02100,    -0.01172,    +1.01270,   -0.01383,    -0.00958,    -0.01490,  -22.45078,    -8.32852,    +6.63516
  3139245276,   -0.02393,    -0.01514,    +1.02051,   -0.01383,    -0.00639,    -0.01064,  -22.45078,    -8.32852,    +6.63516
  3139256172,   -0.02100,    -0.01416,    +1.02295,   -0.02022,    -0.00745,    -0.01277,  -22.45078,    -8.32852,    +6.63516
  3139267045,   -0.01660,    -0.00635,    +1.02979,   -0.01596,    -0.01064,    -0.00745,  -22.45078,    -8.32852,    +6.63516
  3139277874,   -0.03027,    -0.02344,    +1.02246,   -0.01171,    -0.00639,    -0.00958,  -22.45078,    -8.32852,    +6.63516
  3139288732,   -0.02246,    -0.00537,    +1.02588,   -0.01703,    -0.00851,    -0.01171,  -22.45078,    -8.32852,    +6.63516
  3139299561,   -0.02930,    -0.00732,    +1.03076,   -0.01490,    -0.01277,    -0.00851,  -22.45078,    -8.32852,    +6.63516
  3139310388,   -0.02246,    -0.01123,    +1.02881,   -0.01383,    -0.00851,    -0.01383,  -22.45078,    -8.32852,    +6.63516
  3139321277,   -0.02588,    -0.01709,    +1.03613,   -0.01383,    -0.00426,    -0.01064,  -24.08027,    -9.59590,    +6.46055
  3139332153,   -0.02002,    -0.01221,    +1.02148,   -0.01596,    -0.00851,    -0.01383,  -24.08027,    -9.59590,    +6.46055
  3139342979,   -0.02246,    -0.02246,    +1.01855,   -0.01171,    -0.01171,    -0.00639,  -24.08027,    -9.59590,    +6.46055
  3139353821,   -0.01660,    -0.01025,    +1.03809,   -0.01277,    -0.00319,    -0.00851,  -24.08027,    -9.59590,    +6.46055
  3139364736,   -0.01758,    -0.01758,    +1.02832,   -0.01383,    -0.00426,    -0.01277,  -24.08027,    -9.59590,    +6.46055
  3139375569,   -0.01514,    -0.01611,    +1.01514,   -0.01490,    -0.00639,    -0.00958,  -24.08027,    -9.59590,    +6.46055
  3139386456,   -0.01611,    -0.01172,    +1.02246,   -0.01596,    -0.00958,    -0.01383,  -24.08027,    -9.59590,    +6.46055
  3139397283,   -0.01709,    -0.01807,    +1.03564,   -0.01383,    -0.00319,    -0.01383,  -24.08027,    -9.59590,    +6.46055
  3139408111,   -0.02295,    -0.00977,    +1.03516,   -0.01596,    -0.00745,    -0.01277,  -24.08027,    -9.59590,    +6.46055
  3139419029,   -0.01660,    -0.02148,    +1.02588,   -0.01383,    -0.00958,    -0.01277,  -24.08027,    -9.59590,    +6.46055
  3139429857,   -0.02783,    -0.00146,    +1.01904,   -0.01383,    -0.00958,    -0.01277,  -24.08027,    -9.59590,    +6.46055
  3139440683,   -0.01514,    -0.01416,    +1.00732,   -0.01171,    -0.00426,    -0.01490,  -24.08027,    -9.59590,    +6.46055
  3139451574,   -0.01514,    -0.00781,    +1.03613,   -0.01171,    -0.01064,    -0.01383,  -24.08027,    -9.59590,    +6.46055
  3139462450,   -0.02295,    -0.00781,    +1.02441,   -0.01383,    -0.00213,    -0.01171,  -24.08027,    -9.59590,    +6.46055
  3139473288,   -0.01855,    -0.01270,    +1.02051,   -0.01809,    -0.01277,    -0.00851,  -24.08027,    -9.59590,    +6.46055
  3139484150,   -0.01318,    -0.01465,    +1.03369,   -0.01596,    -0.00851,    -0.00851,  -24.08027,    -9.59590,    +6.46055
  3139494976,   -0.01367,    -0.02148,    +1.04102,   -0.01703,    -0.00745,    -0.01171,  -24.08027,    -9.59590,    +6.46055
  3139505820,   -0.01709,    -0.01172,    +1.02734,   -0.01703,    -0.00426,    -0.01490,  -24.08027,    -9.59590,    +6.46055
  3139516710,   -0.02295,    -0.00977,    +1.02441,   -0.01703,    -0.00958,    -0.01277,  -24.08027,    -9.59590,    +6.46055
  3139527587,   -0.02148,    -0.01221,    +1.02686,   -0.01383,    -0.00639,    -0.01809,  -24.08027,    -9.59590,    +6.46055
  3139538433,   -0.01709,    -0.01270,    +1.01807,   -0.01809,    -0.00851,    -0.01383,  -24.08027,    -9.59590,    +6.46055
  3139549401,   -0.02246,    -0.01562,    +1.01709,   -0.01383,    -0.00958,    -0.01277,  -24.08027,    -9.59590,    +6.46055
  3139560278,   -0.01904,    -0.00781,    +1.02979,   -0.01490,    -0.00851,    -0.00958,  -24.08027,    -9.59590,    +6.46055
  3139571178,   -0.01709,    -0.00977,    +1.03174,   -0.01171,    -0.00851,    -0.01383,  -24.08027,    -9.59590,    +6.46055
  3139582038,   -0.01416,    -0.00586,    +1.03271,   -0.01383,    -0.00958,    -0.00745,  -24.08027,    -9.59590,    +6.46055
  3139592866,   -0.01514,    -0.01562,    +1.02197,   -0.01490,    -0.01171,    -0.01064,  -24.08027,    -9.59590,    +6.46055
  3139603719,   -0.01709,    -0.00049,    +1.02490,   -0.01277,    -0.00639,    -0.01064,  -24.08027,    -9.59590,    +6.46055
  3139614569,   -0.01611,    -0.01221,    +1.02783,   -0.01383,    -0.00851,    -0.01277,  -24.08027,    -9.59590,    +6.46055
  3139625408,   -0.01709,    -0.00977,    +1.02832,   -0.01277,    -0.00639,    -0.01277,  -24.08027,    -9.59590,    +6.46055
  3139636288,   -0.01074,    -0.01416,    +1.02930,   -0.01703,    -0.00745,    -0.00532,  -24.08027,    -9.59590,    +6.46055
  3139647154,   -0.01709,    -0.01514,    +1.02930,   -0.01277,    -0.00851,    -0.01277,  -24.08027,    -9.59590,    +6.46055
  3139658006,   -0.01562,    -0.01318,    +1.03857,   -0.01064,    -0.00319,    -0.01383,  -24.08027,    -9.59590,    +6.46055
  3139668849,   -0.01367,    -0.01221,    +1.02002,   -0.01383,    -0.01064,    -0.00958,  -24.08027,    -9.59590,    +6.46055
  3139679676,   -0.01758,    -0.00781,    +1.03027,   -0.01277,    -0.01064,    -0.00958,  -24.08027,    -9.59590,    +6.46055
  3139690504,   -0.02100,    -0.01123,    +1.01709,   -0.01703,    -0.01064,    -0.01383,  -24.08027,    -9.59590,    +6.46055
  3139701387,   -0.02441,    -0.01514,    +1.02100,   -0.01490,    -0.01171,    -0.01064,  -24.44238,    -9.59590,    +7.85742
  3139712328,   -0.01465,    -0.01123,    +1.02393,   -0.01383,    -0.01064,    -0.01383,  -24.44238,    -9.59590,    +7.85742
  3139723158,   -0.02002,    -0.01172,    +1.02100,   -0.01064,    -0.00745,    -0.01064,  -24.44238,    -9.59590,    +7.85742
  3139733995,   -0.01514,    -0.01074,    +1.02979,   -0.01277,    -0.00639,    -0.01171,  -24.44238,    -9.59590,    +7.85742
  3139744860,   -0.01904,    -0.01172,    +1.02148,   -0.01171,    -0.00532,    -0.01171,  -24.44238,    -9.59590,    +7.85742
  3139755690,   -0.02393,    -0.00342,    +1.01904,   -0.01703,    -0.00851,    -0.00958,  -24.44238,    -9.59590,    +7.85742
  3139766554,   -0.02148,    -0.01904,    +1.02832,   -0.01703,    -0.01171,    -0.01277,  -24.44238,    -9.59590,    +7.85742
  3139777402,   -0.01807,    -0.01025,    +1.02979,   -0.01383,    -0.00532,    -0.01277,  -24.44238,    -9.59590,    +7.85742
  3139788240,   -0.02002,    -0.01562,    +1.02979,   -0.01596,    -0.01064,    -0.00851,  -24.44238,    -9.59590,    +7.85742
  3139799151,   -0.02344,    -0.01221,    +1.02783,   -0.01064,    -0.01064,    -0.01064,  -24.44238,    -9.59590,    +7.85742
  3139810004,   -0.01318,    -0.01074,    +1.03613,   -0.01596,    -0.01064,    -0.01171,  -24.44238,    -9.59590,    +7.85742
  3139820866,   -0.02148,    -0.01807,    +1.02832,   -0.01490,    -0.01064,    -0.01277,  -24.44238,    -9.59590,    +7.85742
  3139831741,   -0.02100,    -0.00586,    +1.03223,   -0.01277,    -0.01064,    -0.01064,  -24.44238,    -9.59590,    +7.85742
  3139842592,   -0.01562,    -0.01172,    +1.01611,   -0.01171,    -0.00851,    -0.00958,  -24.44238,    -9.59590,    +7.85742
  3139853432,   -0.01416,    -0.01123,    +1.02246,   -0.01171,    -0.01064,    -0.00851,  -24.44238,    -9.59590,    +7.85742
  3139864324,   -0.01562,    -0.01514,    +1.04980,   -0.01596,    -0.00958,    -0.01171,  -24.44238,    -9.59590,    +7.85742
  3139875174,   -0.02051,    -0.00732,    +1.02051,   -0.01490,    -0.01171,    -0.01596,  -24.44238,    -9.59590,    +7.85742
  3145505977,   -0.01758,    -0.00879,    +1.02881,   -0.00581,    -0.00745,    -0.01171,  -25.70977,   -10.13906,    +6.28594
  3145508056,   -0.02051,    -0.01318,    +1.02490,   +0.00057,    -0.00745,    -0.01383,  -25.70977,   -10.13906,    +6.28594
  3145510557,   -0.02148,    -0.00146,    +1.02002,   -0.00688,    -0.00958,    -0.01277,  -25.70977,   -10.13906,    +6.28594
  3145513121,   -0.02393,    -0.01318,    +1.01562,   -0.00156,    -0.00851,    -0.01277,  -25.70977,   -10.13906,    +6.28594
  3145515691,   -0.02295,    -0.01416,    +1.03369,   +0.00164,    -0.01171,    -0.00639,  -25.70977,   -10.13906,    +6.28594
  3145518262,   -0.01660,    -0.01465,    +1.03174,   -0.00581,    -0.00532,    -0.01490,  -25.70977,   -10.13906,    +6.28594
  3145520834,   -0.02002,    -0.00635,    +1.01758,   -0.00262,    -0.01064,    -0.01064,  -25.70977,   -10.13906,    +6.28594
  3145523404,   -0.02246,    -0.01123,    +1.01855,   +0.00270,    -0.00958,    -0.01277,  -25.70977,   -10.13906,    +6.28594
  3145525970,   -0.01367,    -0.01123,    +1.03711,   -0.00581,    -0.00958,    -0.01064,  -25.70977,   -10.13906,    +6.28594
  3145528539,   -0.02490,    -0.00928,    +1.02930,   -0.00475,    -0.01064,    -0.01171,  -25.70977,   -10.13906,    +6.28594
  3145531110,   -0.01221,    -0.00635,    +1.01855,   -0.00049,    -0.00745,    -0.01277,  -25.70977,   -10.13906,    +6.28594
  3145533678,   -0.02539,    -0.01172,    +1.04004,   -0.00156,    -0.01064,    -0.00958,  -25.70977,   -10.13906,    +6.28594
  3145536250,   -0.02197,    -0.01465,    +1.03662,   -0.00368,    -0.00639,    -0.00639,  -25.70977,   -10.13906,    +6.28594
  3145538822,   -0.02100,    -0.01709,    +1.02686,   -0.00368,    -0.00426,    -0.01490,  -25.70977,   -10.13906,    +6.28594
  3145541389,   -0.01172,    -0.02051,    +1.03223,   -0.00368,    -0.01064,    -0.01490,  -25.70977,   -10.13906,    +6.28594
  3145543961,   -0.00781,    -0.00732,    +1.04004,   +0.00057,    -0.00745,    -0.01383,  -25.70977,   -10.13906,    +6.28594
  3145546536,   -0.02100,    -0.01514,    +1.02490,   -0.00262,    -0.01490,    -0.00532,  -25.70977,   -10.13906,    +6.28594
  3145549158,   -0.02490,    -0.00879,    +1.02100,   -0.00156,    -0.00639,    -0.01064,  -25.70977,   -10.13906,    +6.28594
  3145551668,   -0.02197,    -0.01758,    +1.03760,   +0.00057,    -0.01171,    -0.01490,  -25.70977,   -10.13906,    +6.28594
  3145554238,   -0.01807,    -0.01221,    +1.02783,   -0.00368,    -0.00745,    -0.01171,  -25.70977,   -10.13906,    +6.28594
  3145556808,   -0.02051,    -0.01123,    +1.02783,   -0.00262,    -0.00639,    -0.01490,  -25.70977,   -10.13906,    +6.28594
  3145559383,   -0.01562,    -0.01221,    +1.03369,   -0.00156,    -0.00532,    -0.01171,  -23.71816,    -9.59590,    +7.50820
  3145561952,   -0.01709,    -0.01660,    +1.01367,   -0.00581,    -0.00639,    -0.00851,  -23.71816,    -9.59590,    +7.50820
  3145564519,   -0.02344,    -0.01465,    +1.04053,   -0.00156,    -0.01171,    -0.01703,  -23.71816,    -9.59590,    +7.50820
  3145567089,   -0.01855,    -0.00928,    +1.03516,   +0.00057,    -0.00745,    -0.01064,  -23.71816,    -9.59590,    +7.50820
  3145569660,   -0.02588,    -0.01855,    +1.03174,   -0.00156,    -0.00639,    -0.01171,  -23.71816,    -9.59590,    +7.50820
  3145572226,   -0.01172,    -0.01562,    +1.03564,   -0.00475,    -0.01064,    -0.01064,  -23.71816,    -9.59590,    +7.50820
  3145574795,   -0.02344,    -0.01221,    +1.02539,   +0.00270,    -0.00639,    -0.01490,  -23.71816,    -9.59590,    +7.50820
  3145577367,   -0.02051,    -0.01025,    +1.03467,   +0.00270,    -0.00319,    -0.01064,  -23.71816,    -9.59590,    +7.50820
  3145579938,   -0.02686,    -0.01611,    +1.01514,   -0.00262,    -0.00851,    -0.00745,  -23.71816,    -9.59590,    +7.50820
  3145582504,   -0.01074,    -0.01270,    +1.02783,   -0.00156,    -0.00851,    -0.01171,  -23.71816,    -9.59590,    +7.50820
  3145585075,   -0.01465,    -0.01123,    +1.02539,   -0.00049,    -0.01171,    -0.01383,  -23.71816,    -9.59590,    +7.50820
  3145587645,   -0.01123,    -0.01172,    +1.03027,   -0.00368,    -0.00851,    -0.01383,  -23.71816,    -9.59590,    +7.50820
  3145590214,   -0.02197,    -0.01270,    +1.02832,   -0.00794,    -0.01171,    -0.01171,  -23.71816,    -9.59590,    +7.50820
  3145592785,   -0.02588,    -0.01611,    +1.04102,   -0.00368,    -0.01064,    -0.01277,  -23.71816,    -9.59590,    +7.50820
  3145595355,   -0.00684,    -0.01074,    +1.03027,   -0.00049,    -0.00639,    -0.01383,  -23.71816,    -9.59590,    +7.50820
  3145597922,   -0.01025,    -0.01270,    +1.02979,   -0.00368,    -0.00532,    -0.01277,  -23.71816,    -9.59590,    +7.50820
  3145600493,   -0.02295,    -0.00586,    +1.02246,   +0.00057,    -0.00213,    -0.01064,  -23.71816,    -9.59590,    +7.50820
  3145603061,   -0.01465,    +0.00049,    +1.04053,   -0.00475,    -0.01490,    -0.01064,  -23.71816,    -9.59590,    +7.50820
  3145605631,   -0.02393,    -0.01172,    +1.02100,   -0.00262,    -0.00745,    -0.01277,  -23.71816,    -9.59590,    +7.50820
  3145608199,   -0.02393,    -0.01758,    +1.02979,   -0.00049,    -0.00851,    -0.00958,  -23.71816,    -9.59590,    +7.50820
  3145610769,   -0.01855,    -0.02441,    +1.03955,   +0.00057,    -0.00745,    -0.01383,  -23.71816,    -9.59590,    +7.50820
  3145613339,   -0.01416,    -0.01465,    +1.04639,   -0.00156,    -0.01383,    -0.01277,  -23.71816,    -9.59590,    +7.50820
  3145615907,   -0.02148,    -0.00391,    +1.02148,   -0.00262,    -0.01277,    -0.01064,  -23.71816,    -9.59590,    +7.50820
  3145618578,   -0.02051,    -0.01123,    +1.01611,   -0.00156,    -0.00745,    -0.01171,  -23.71816,    -9.59590,    +7.50820
  3145621049,   -0.02197,    -0.01758,    +1.03760,   -0.00475,    -0.01064,    -0.01064,  -23.71816,    -9.59590,    +7.50820
  3145623622,   -0.01074,    -0.02881,    +1.01709,   -0.00368,    -0.00426,    -0.01490,  -23.71816,    -9.59590,    +7.50820
  3145626189,   -0.00586,    -0.01270,    +1.03076,   -0.00262,    -0.01171,    -0.01064,  -23.71816,    -9.59590,    +7.50820
  3145628764,   -0.02490,    -0.01611,    +1.02686,   -0.00156,    -0.00851,    -0.00426,  -23.71816,    -9.59590,    +7.50820
  3145631330,   -0.02295,    -0.01709,    +1.02783,   -0.00368,    -0.00958,    -0.01277,  -23.71816,    -9.59590,    +7.50820
  3145633899,   -0.02246,    -0.00488,    +1.02686,   -0.00262,    -0.00639,    -0.01277,  -23.71816,    -9.59590,    +7.50820
  3145636470,   -0.02051,    -0.01514,    +1.03223,   -0.00794,    -0.01171,    -0.01064,  -23.71816,    -9.59590,    +7.50820
  3145639140,   -0.02832,    -0.01270,    +1.02881,   -0.00262,    -0.00213,    -0.01171,  -23.71816,    -9.59590,    +7.50820
  3145641611,   -0.02148,    -0.01221,    +1.03320,   -0.00049,    -0.00958,    -0.01064,  -23.71816,    -9.59590,    +7.50820
  3145644183,   -0.01709,    -0.01172,    +1.03223,   -0.00049,    -0.00851,    -0.00851,  -23.71816,    -9.59590,    +7.50820
  3145646748,   -0.02100,    -0.01221,    +1.03320,   -0.00262,    -0.01171,    -0.00958,  -23.71816,    -9.59590,    +7.50820
  3145649321,   -0.01562,    -0.01416,    +1.03662,   -0.00368,    -0.00532,    -0.00958,  -23.71816,    -9.59590,    +7.50820
  3145651887,   -0.01221,    -0.01465,    +1.04199,   -0.00475,    -0.00851,    -0.01490,  -23.71816,    -9.59590,    +7.50820
  3145654456,   -0.01562,    -0.01270,    +1.02441,   -0.00688,    -0.01064,    -0.01064,  -23.71816,    -9.59590,    +7.50820
  3145657028,   -0.01611,    -0.02148,    +1.02246,   -0.00262,    -0.00958,    -0.00851,  -23.71816,    -9.59590,    +7.50820
  3145659600,   -0.01855,    -0.01611,    +1.02783,   -0.00475,    -0.00532,    -0.01171,  -23.71816,    -9.59590,    +7.50820
  3145662165,   -0.01758,    -0.00928,    +1.02686,   +0.00164,    -0.01171,    -0.01171,  -23.71816,    -9.59590,    +7.50820
  3145664734,   -0.02295,    -0.01514,    +1.03516,   -0.00475,    -0.01064,    -0.00851,  -23.71816,    -9.59590,    +7.50820
  3145667302,   -0.01465,    -0.01709,    +1.02295,   -0.00368,    -0.00745,    -0.01171,  -23.71816,    -9.59590,    +7.50820
  3145669876,   -0.01318,    -0.01123,    +1.02393,   -0.00156,    -0.00958,    -0.01277,  -23.71816,    -9.59590,    +7.50820
  3145672443,   -0.01709,    -0.01611,    +1.02295,   -0.00581,    -0.00532,    -0.00958,  -23.71816,    -9.59590,    +7.50820
  3145675012,   -0.01611,    -0.01514,    +1.04346,   -0.00262,    -0.01171,    -0.01277,  -23.71816,    -9.59590,    +7.50820
  3145677581,   -0.01562,    -0.01562,    +1.03760,   -0.00156,    -0.00958,    -0.00532,  -23.71816,    -9.59590,    +7.50820
  3145680152,   -0.01416,    -0.01611,    +1.03125,   -0.00475,    -0.01277,    -0.01171,  -23.71816,    -9.59590,    +7.50820
  3145682722,   -0.01807,    -0.01416,    +1.02100,   -0.00156,    -0.00958,    -0.00958,  -23.71816,    -9.59590,    +7.50820
  3145685292,   -0.02051,    -0.00439,    +1.02539,   -0.00368,    -0.00851,    -0.01064,  -23.71816,    -9.95801,    +7.15898
  3145687860,   -0.02002,    -0.01465,    +1.02979,   +0.00057,    -0.01596,    -0.01383,  -23.71816,    -9.95801,    +7.15898
  3145690431,   -0.02441,    -0.01465,    +1.02393,   -0.00156,    -0.01064,    -0.01064,  -23.71816,    -9.95801,    +7.15898
  3145693000,   -0.02002,    -0.01416,    +1.04053,   -0.01007,    -0.00745,    -0.01277,  -23.71816,    -9.95801,    +7.15898
  3145695569,   -0.03223,    -0.02881,    +1.02197,   -0.00262,    -0.00639,    -0.00958,  -23.71816,    -9.95801,    +7.15898
  3145698140,   -0.01709,    -0.01172,    +1.02051,   -0.00368,    -0.00958,    -0.00958,  -23.71816,    -9.95801,    +7.15898
  3145700712,   -0.02734,    -0.01074,    +1.03613,   -0.00049,    -0.00639,    -0.01383,  -23.71816,    -9.95801,    +7.15898
  3145703278,   -0.01807,    -0.01562,    +1.03223,   -0.00049,    -0.00745,    -0.01490,  -23.71816,    -9.95801,    +7.15898
  3145705851,   -0.01221,    -0.01416,    +1.01562,   -0.00581,    -0.00851,    -0.01171,  -23.71816,    -9.95801,    +7.15898
  3145708520,   -0.02539,    -0.01660,    +1.03174,   +0.00057,    -0.00851,    -0.00851,  -23.71816,    -9.95801,    +7.15898
  3145710988,   -0.01465,    -0.00635,    +1.01807,   +0.00270,    -0.01277,    -0.01064,  -23.71816,    -9.95801,    +7.15898
  3145713568,   -0.02783,    -0.01611,    +1.02100,   -0.00368,    -0.00745,    -0.01171,  -23.71816,    -9.95801,    +7.15898
  3145716133,   -0.01855,    -0.01758,    +1.02393,   -0.00262,    -0.00958,    -0.01383,  -23.71816,    -9.95801,    +7.15898
  3145718726,   -0.02002,    -0.00928,    +1.04199,   -0.00368,    -0.00426,    -0.01064,  -23.71816,    -9.95801,    +7.15898
  3145721270,   -0.01807,    -0.01318,    +1.01562,   -0.00368,    -0.00851,    -0.00851,  -23.71816,    -9.95801,    +7.15898
  3145723840,   -0.02295,    -0.01074,    +1.02734,   -0.00475,    -0.01277,    -0.01490,  -23.71816,    -9.95801,    +7.15898
  3145726408,   -0.01904,    -0.01758,    +1.01758,   -0.00475,    -0.00639,    -0.01171,  -23.71816,    -9.95801,    +7.15898
  3145729046,   -0.02148,    -0.01758,    +1.02539,   +0.00164,    -0.00745,    -0.00745,  -23.71816,    -9.95801,    +7.15898
  3145731546,   -0.01611,    -0.00195,    +1.02051,   -0.00262,    -0.00958,    -0.00958,  -23.71816,    -9.95801,    +7.15898
  3145734118,   -0.01660,    -0.00342,    +1.03906,   -0.00156,    -0.01383,    -0.01383,  -23.71816,    -9.95801,    +7.15898
  3145736688,   -0.02051,    -0.00635,    +1.04150,   -0.00262,    -0.01064,    -0.00958,  -23.71816,    -9.95801,    +7.15898
  3145739266,   -0.01709,    -0.01172,    +1.02734,   -0.00475,    -0.00745,    -0.01064,  -23.71816,    -9.95801,    +7.15898
  3145741830,   -0.01611,    -0.01758,    +1.03809,   -0.00156,    -0.01383,    -0.01064,  -23.71816,    -9.95801,    +7.15898
  3145744401,   -0.01318,    -0.01514,    +1.03564,   -0.00794,    -0.00532,    -0.01171,  -23.71816,    -9.95801,    +7.15898
  3145746967,   -0.02979,    -0.00391,    +1.02246,   +0.00377,    -0.00851,    -0.01171,  -23.71816,    -9.95801,    +7.15898
  3145749540,   -0.01514,    -0.00635,    +1.02246,   -0.00262,    -0.00745,    -0.00851,  -23.71816,    -9.95801,    +7.15898
  3145752108,   -0.02344,    -0.01562,    +1.03711,   +0.00057,    -0.00958,    -0.01064,  -23.71816,    -9.95801,    +7.15898
  3145754678,   -0.01758,    -0.01758,    +1.01562,   -0.00475,    -0.00639,    -0.01064,  -23.71816,    -9.95801,    +7.15898
  3145757247,   -0.01904,    -0.01025,    +1.03711,   -0.00156,    -0.00639,    -0.01277,  -23.71816,    -9.95801,    +7.15898
  3145759820,   -0.01465,    -0.00879,    +1.03027,   -0.00475,    -0.00958,    -0.00851,  -23.71816,    -9.95801,    +7.15898
  3145762439,   -0.02197,    -0.01123,    +1.03320,   -0.00049,    -0.00426,    -0.01171,  -23.71816,    -9.95801,    +7.15898
  3145764964,   -0.02100,    -0.01416,    +1.02881,   -0.00475,    -0.01064,    -0.00639,  -23.71816,    -9.95801,    +7.15898
  3145767540,   -0.03027,    -0.01221,    +1.02100,   -0.00901,    -0.00851,    -0.01383,  -23.71816,    -9.95801,    +7.15898
  3145770118,   -0.01807,    -0.00928,    +1.03760,   -0.00049,    -0.00745,    -0.01064,  -23.71816,    -9.95801,    +7.15898
  3145772716,   -0.01416,    -0.00635,    +1.02686,   -0.00475,    -0.00851,    -0.01490,  -23.71816,    -9.95801,    +7.15898
  3145775287,   -0.02295,    -0.01025,    +1.02490,   +0.00057,    -0.00426,    -0.01277,  -23.71816,    -9.95801,    +7.15898
  3145777874,   -0.02100,    -0.01465,    +1.02148,   -0.00581,    -0.00532,    -0.00958,  -23.71816,    -9.95801,    +7.15898
  3145780492,   -0.01562,    -0.01758,    +1.01807,   -0.00368,    -0.00958,    -0.01064,  -23.71816,    -9.95801,    +7.15898
  3145782989,   -0.01904,    -0.01660,    +1.01758,   -0.00262,    -0.00532,    -0.01490,  -23.71816,    -9.95801,    +7.15898
  3145785587,   -0.01367,    -0.00195,    +1.02002,   -0.00581,    -0.01171,    -0.00851,  -23.71816,    -9.95801,    +7.15898
  3145788210,   -0.02246,    -0.02051,    +1.02148,   -0.00049,    -0.01064,    -0.01703,  -23.71816,    -9.95801,    +7.15898
  3145790767,   -0.02393,    -0.01904,    +1.02490,   -0.00368,    -0.01064,    -0.00958,  -23.71816,    -9.95801,    +7.15898
  3145793268,   -0.01904,    -0.01709,    +1.03516,   -0.00262,    -0.01064,    -0.01277,  -23.71816,    -9.95801,    +7.15898
  3145795857,   -0.01807,    -0.00684,    +1.02100,   -0.00794,    -0.00745,    -0.01064,  -23.71816,    -9.95801,    +7.15898
  3145798438,   -0.00928,    -0.00439,    +1.02490,   -0.00368,    -0.00639,    -0.00958,  -23.71816,    -9.95801,    +7.15898
  3145801077,   -0.02441,    -0.00781,    +1.02148,   -0.00368,    -0.00851,    -0.00639,  -23.71816,    -9.95801,    +7.15898
  3145803578,   -0.00879,    -0.01611,    +1.02393,   -0.00156,    -0.00745,    -0.01277,  -23.71816,    -9.95801,    +7.15898
  3145806166,   -0.02246,    -0.00732,    +1.03760,   -0.00049,    -0.01064,    -0.01277,  -23.71816,    -9.95801,    +7.15898
  3145808803,   -0.02686,    -0.00439,    +1.04688,   -0.00262,    -0.00532,    -0.01171,  -26.43398,   -11.22539,    +6.28594
  3145811396,   -0.02344,    -0.02344,    +1.02148,   -0.00156,    -0.01064,    -0.01277,  -26.43398,   -11.22539,    +6.28594
  3145813891,   -0.02148,    -0.01025,    +1.02197,   -0.00475,    -0.01277,    -0.00958,  -26.43398,   -11.22539,    +6.28594
  3145816483,   -0.02295,    -0.00195,    +1.03467,   -0.00156,    -0.00745,    -0.01490,  -26.43398,   -11.22539,    +6.28594
  3145819140,   -0.01904,    -0.00781,    +1.02881,   -0.00049,    -0.00426,    -0.01064,  -26.43398,   -11.22539,    +6.28594
  3145821603,   -0.01709,    -0.00000,    +1.01562,   -0.00262,    -0.00958,    -0.00745,  -26.43398,   -11.22539,    +6.28594
  3145824185,   -0.01367,    -0.01318,    +1.02441,   -0.00049,    -0.00745,    -0.01171,  -26.43398,   -11.22539,    +6.28594
  3145826825,   -0.00879,    -0.01416,    +1.02783,   -0.00368,    -0.00745,    -0.00958,  -26.43398,   -11.22539,    +6.28594
  3145829369,   -0.01465,    -0.01221,    +1.03125,   +0.00057,    -0.01277,    -0.01383,  -26.43398,   -11.22539,    +6.28594
  3145831884,   -0.01514,    -0.00928,    +1.02686,   -0.00156,    -0.01064,    -0.00745,  -26.43398,   -11.22539,    +6.28594
  3145834466,   -0.01611,    -0.00732,    +1.02246,   -0.00049,    -0.00958,    -0.00958,  -26.43398,   -11.22539,    +6.28594
  3145837044,   -0.01807,    -0.01562,    +1.03369,   -0.00794,    -0.00532,    -0.01171,  -26.43398,   -11.22539,    +6.28594
  3145839687,   -0.01758,    -0.01416,    +1.02637,   -0.00049,    -0.01277,    -0.01277,  -26.43398,   -11.22539,    +6.28594
  3145842173,   -0.02588,    -0.01465,    +1.02246,   -0.00156,    -0.00213,    -0.01383,  -26.43398,   -11.22539,    +6.28594
  3145844754,   -0.02832,    -0.00732,    +1.03564,   +0.00057,    -0.00851,    -0.00958,  -26.43398,   -11.22539,    +6.28594
  3145847411,   -0.01709,    -0.01709,    +1.04346,   -0.00368,    -0.00745,    -0.01277,  -26.43398,   -11.22539,    +6.28594
  3145849962,   -0.02100,    -0.01416,    +1.02637,   -0.00049,    -0.00532,    -0.01490,  -26.43398,   -11.22539,    +6.28594
  3145852468,   -0.01562,    -0.01855,    +1.02051,   -0.00262,    -0.00851,    -0.01064,  -26.43398,   -11.22539,    +6.28594
  3145855053,   -0.01367,    -0.00439,    +1.01660,   +0.00057,    -0.00319,    -0.01064,  -26.43398,   -11.22539,    +6.28594
  3145857634,   -0.02197,    -0.01221,    +1.02295,   -0.00688,    -0.00426,    -0.01064,  -26.43398,   -11.22539,    +6.28594
  3145860263,   -0.01904,    -0.00977,    +1.02588,   -0.00156,    -0.01277,    -0.01171,  -26.43398,   -11.22539,    +6.28594
  3145862776,   -0.02100,    -0.00781,    +1.04248,   -0.00262,    -0.00851,    -0.01064,  -26.43398,   -11.22539,    +6.28594
  3145865366,   -0.02344,    -0.01318,    +1.03027,   +0.00057,    -0.00639,    -0.00745,  -26.43398,   -11.22539,    +6.28594
  3145867986,   -0.02051,    -0.01709,    +1.02148,   -0.00368,    -0.00745,    -0.00958,  -26.43398,   -11.22539,    +6.28594
  3145870552,   -0.02930,    -0.00928,    +1.01465,   +0.00057,    -0.00958,    -0.01064,  -26.43398,   -11.22539,    +6.28594
  3145873055,   -0.02344,    -0.01416,    +1.02441,   -0.00475,    -0.00532,    -0.00745,  -26.43398,   -11.22539,    +6.28594
  3145875643,   -0.02588,    -0.01465,    +1.01660,   -0.00262,    -0.01171,    -0.01277,  -26.43398,   -11.22539,    +6.28594
  3145878244,   -0.02197,    -0.01709,    +1.02979,   -0.00368,    -0.00745,    -0.00745,  -26.43398,   -11.22539,    +6.28594
  3145880863,   -0.02686,    -0.00684,    +1.02100,   -0.00156,    -0.00958,    -0.01277,  -26.43398,   -11.22539,    +6.28594
  3145883360,   -0.01514,    -0.01807,    +1.03320,   -0.00368,    -0.00745,    -0.01277,  -26.43398,   -11.22539,    +6.28594
  3145885939,   -0.02051,    -0.00781,    +1.02246,   -0.00156,    -0.00851,    -0.01064,  -26.43398,   -11.22539,    +6.28594
  3145888716,   -0.02588,    -0.01074,    +1.03955,   -0.00156,    -0.00639,    -0.01171,  -26.43398,   -11.22539,    +6.28594
  3145891149,   -0.01416,    -0.01172,    +1.02100,   -0.00581,    -0.00851,    -0.00745,  -26.43398,   -11.22539,    +6.28594
  3145893642,   -0.00928,    -0.01123,    +1.01855,   -0.00049,    -0.00851,    -0.00851,  -26.43398,   -11.22539,    +6.28594
  3145896229,   -0.02051,    -0.01318,    +1.03076,   -0.00049,    -0.00639,    -0.01171,  -26.43398,   -11.22539,    +6.28594
  3145898778,   -0.02490,    -0.01270,    +1.02393,   -0.00368,    -0.01064,    -0.00958,  -26.43398,   -11.22539,    +6.28594
  3145901363,   -0.02441,    -0.01270,    +1.02441,   -0.00794,    -0.00319,    -0.01277,  -26.43398,   -11.22539,    +6.28594
  3145903938,   -0.01367,    -0.01465,    +1.01465,   -0.00156,    -0.01277,    -0.01277,  -26.43398,   -11.22539,    +6.28594
  3145906590,   -0.01465,    -0.00928,    +1.03467,   -0.00049,    -0.00958,    -0.01490,  -26.43398,   -11.22539,    +6.28594
  3145909375,   -0.01855,    -0.00928,    +1.02246,   -0.00368,    -0.00532,    -0.00958,  -26.43398,   -11.22539,    +6.28594
  3145911664,   -0.02100,    -0.01172,    +1.03369,   +0.00164,    -0.01383,    -0.01064,  -26.43398,   -11.22539,    +6.28594
  3145914317,   -0.01660,    -0.01123,    +1.02637,   -0.00368,    -0.00639,    -0.01171,  -26.43398,   -11.22539,    +6.28594
  3145916871,   -0.02002,    -0.01123,    +1.03467,   -0.00475,    -0.00745,    -0.01064,  -26.43398,   -11.22539,    +6.28594
  3145919490,   -0.01367,    -0.01172,    +1.02490,   +0.00164,    -0.00745,    -0.00958,  -26.43398,   -11.22539,    +6.28594
  3145921977,   -0.02441,    -0.01465,    +1.02686,   +0.00057,    -0.00851,    -0.01277,  -26.43398,   -11.22539,    +6.28594
  3145924552,   -0.01562,    -0.00977,    +1.02393,   +0.00057,    -0.00851,    -0.01383,  -26.43398,   -11.22539,    +6.28594
  3145927211,   -0.01904,    -0.01514,    +1.02197,   -0.00368,    -0.00958,    -0.00851,  -26.43398,   -11.22539,    +6.28594
  3145929772,   -0.02002,    -0.01807,    +1.02393,   -0.00049,    -0.00639,    -0.00851,  -26.43398,   -11.22539,    +6.28594
  3145932279,   -0.02295,    -0.00635,    +1.02930,   -0.00581,    -0.01171,    -0.00958,  -26.43398,   -11.22539,    +6.28594
  3145934862,   -0.02051,    -0.00928,    +1.03174,   -0.00262,    -0.00851,    -0.01277,  -26.43398,   -11.22539,    +6.28594
  3145937445,   -0.02100,    -0.01270,    +1.02246,   -0.00262,    -0.00000,    -0.01171,  -26.43398,   -11.22539,    +6.28594
  3145940098,   -0.01514,    -0.00732,    +1.05225,   -0.00368,    -0.01171,    -0.00958,  -26.43398,   -11.22539,    +6.28594
  3145942570,   -0.02246,    -0.01172,    +1.03076,   -0.00156,    -0.00639,    -0.01171,  -26.43398,   -11.22539,    +6.28594
  3145945146,   -0.02295,    -0.00586,    +1.00781,   -0.00049,    -0.00532,    -0.01490,  -26.43398,   -11.22539,    +6.28594
  3145947809,   -0.02246,    -0.00586,    +1.03223,   -0.00368,    -0.00958,    -0.01490,  -26.43398,   -11.22539,    +6.28594
  3145950396,   -0.01123,    -0.01465,    +1.03027,   -0.00156,    -0.00851,    -0.00958,  -26.43398,   -11.22539,    +6.28594
  3145952900,   -0.02539,    -0.01270,    +1.02295,   -0.00049,    -0.01064,    -0.00851,  -26.43398,   -11.22539,    +6.28594
  3145955488,   -0.01807,    -0.00586,    +1.02734,   -0.00262,    -0.00213,    -0.01383,  -26.43398,   -11.22539,    +6.28594
  3145958123,   -0.02100,    -0.01416,    +1.02686,   -0.00262,    -0.00958,    -0.01277,  -26.43398,   -11.22539,    +6.28594
  3145960748,   -0.01465,    -0.00342,    +1.02490,   -0.00156,    -0.00958,    -0.01383,  -26.43398,   -11.22539,    +6.28594
  3145963273,   -0.01611,    -0.00928,    +1.02783,   -0.00368,    -0.00851,    -0.00745,  -26.43398,   -11.22539,    +6.28594
  3145965825,   -0.02246,    -0.01270,    +1.01514,   -0.00262,    -0.01064,    -0.01171,  -26.43398,   -11.22539,    +6.28594
  3145968317,   -0.00928,    -0.00928,    +1.03516,   +0.00057,    -0.00851,    -0.00745,  -26.43398,   -11.22539,    +6.28594
  3145970903,   -0.02051,    -0.01514,    +1.02881,   -0.00156,    -0.01064,    -0.01277,  -26.43398,   -11.22539,    +6.28594
  3145973484,   -0.02588,    -0.01025,    +1.03320,   -0.00475,    -0.00639,    -0.00958,  -26.43398,   -11.22539,    +6.28594
  3145976113,   -0.01611,    -0.01172,    +1.01660,   -0.00475,    -0.00745,    -0.00958,  -26.43398,   -11.22539,    +6.28594
  3145979028,   -0.02002,    -0.00342,    +1.03613,   +0.00057,    -0.01277,    -0.00958,  -26.43398,   -11.22539,    +6.28594
  3145981314,   -0.01367,    -0.00928,    +1.01318,   -0.00475,    -0.00639,    -0.00958,  -26.43398,   -11.22539,    +6.28594
  3145983776,   -0.01318,    -0.00586,    +1.04541,   +0.00057,    -0.00532,    -0.01277,  -26.43398,   -11.22539,    +6.28594
  3145986371,   -0.02197,    -0.01611,    +1.02197,   -0.00368,    -0.01171,    -0.01064,  -26.43398,   -11.22539,    +6.28594
  3145988935,   -0.01807,    +0.00146,    +1.01953,   -0.00368,    -0.01171,    -0.01064,  -26.43398,   -11.22539,    +6.28594
  3145991592,   -0.01123,    -0.00879,    +1.02100,   -0.00049,    -0.00639,    -0.01383,  -26.43398,   -11.22539,    +6.28594
  3145994190,   -0.02002,    -0.01709,    +1.01807,   -0.00475,    -0.00851,    -0.00639,  -26.43398,   -11.22539,    +6.28594
  3145996698,   -0.01807,    -0.01807,    +1.03076,   -0.00262,    -0.00958,    -0.01277,  -26.43398,   -11.22539,    +6.28594
  3145999273,   -0.01611,    -0.01172,    +1.03467,   -0.00262,    -0.00958,    -0.01171,  -26.43398,   -11.22539,    +6.28594
  3146001827,   -0.01611,    -0.01562,    +1.03564,   -0.00156,    -0.00426,    -0.00958,  -26.43398,   -11.22539,    +6.28594
  3146004407,   -0.01660,    -0.01514,    +1.02441,   -0.00156,    -0.00851,    -0.01490,  -26.43398,   -11.22539,    +6.28594
  3146006983,   -0.01758,    -0.01562,    +1.03320,   -0.00794,    -0.01171,    -0.00851,  -26.43398,   -11.22539,    +6.28594
  3146009634,   -0.01465,    -0.01465,    +1.02295,   -0.00475,    -0.00745,    -0.00958,  -26.43398,   -11.22539,    +6.28594
  3146012220,   -0.02051,    -0.00781,    +1.02148,   -0.00581,    -0.01277,    -0.00958,  -26.43398,   -11.22539,    +6.28594
  3146014725,   -0.02100,    -0.01074,    +1.02637,   -0.00581,    -0.00958,    -0.00958,  -26.43398,   -11.22539,    +6.28594
  3146017301,   -0.01514,    -0.01318,    +1.02490,   -0.00156,    -0.00958,    -0.00745,  -26.43398,   -11.22539,    +6.28594
  3146019948,   -0.02490,    -0.01416,    +1.02051,   -0.00262,    -0.00639,    -0.01171,  -26.43398,   -11.22539,    +6.28594
  3146022435,   -0.02148,    -0.00732,    +1.02197,   +0.00057,    -0.01596,    -0.01383,  -26.43398,   -11.22539,    +6.28594
  3146025017,   -0.01514,    -0.00684,    +1.03271,   -0.00368,    -0.00532,    -0.01171,  -26.43398,   -11.22539,    +6.28594
  3146027669,   -0.01514,    -0.00635,    +1.03564,   -0.00049,    -0.00745,    -0.01490,  -26.43398,   -11.22539,    +6.28594
  3146030258,   -0.02100,    -0.00879,    +1.03613,   -0.00262,    -0.01277,    -0.01171,  -26.43398,   -11.22539,    +6.28594
  3146032763,   -0.02148,    -0.01172,    +1.02588,   -0.00475,    -0.00851,    -0.01490,  -26.43398,   -11.22539,    +6.28594
  3146035364,   -0.01465,    -0.01172,    +1.03076,   +0.00057,    -0.00639,    -0.01171,  -26.43398,   -11.22539,    +6.28594
  3146037988,   -0.00977,    -0.00928,    +1.02539,   -0.00049,    -0.01064,    -0.00745,  -26.43398,   -11.22539,    +6.28594
  3146040595,   -0.01709,    -0.01562,    +1.02441,   -0.00581,    -0.00851,    -0.01277,  -26.43398,   -11.22539,    +6.28594
  3146043144,   -0.02734,    -0.01270,    +1.02246,   -0.00901,    -0.00426,    -0.00958,  -26.43398,   -11.22539,    +6.28594
  3146045708,   -0.02148,    -0.00879,    +1.02246,   -0.00049,    -0.00639,    -0.01277,  -26.43398,   -11.22539,    +6.28594
  3146048201,   -0.01855,    -0.01416,    +1.04199,   -0.00156,    -0.00958,    -0.00958,  -26.43398,   -11.22539,    +6.28594
  3146050782,   -0.01660,    -0.00781,    +1.04834,   -0.00368,    -0.00532,    -0.01064,  -26.43398,   -11.22539,    +6.28594
  3146053361,   -0.02246,    -0.00488,    +1.02490,   +0.00057,    -0.01277,    -0.01490,  -26.43398,   -11.22539,    +6.28594
  3146056003,   -0.02734,    -0.01514,    +1.04102,   -0.00901,    -0.00639,    -0.01064,  -26.43398,   -11.22539,    +6.28594
  3146058754,   -0.02246,    -0.00391,    +1.03564,   -0.00156,    -0.01277,    -0.01064,  -26.43398,   -11.22539,    +6.28594
  3146061162,   -0.02832,    -0.00732,    +1.02002,   -0.00475,    -0.01277,    -0.01171,  -26.43398,   -11.22539,    +6.28594
  3146063713,   -0.01904,    -0.01074,    +1.03027,   -0.00368,    -0.00851,    -0.00958,  -26.43398,   -11.22539,    +6.28594
  3146066231,   -0.01416,    -0.00293,    +1.02441,   +0.00057,    -0.01064,    -0.00958,  -26.43398,   -11.22539,    +6.28594
  3146068826,   -0.02051,    -0.01318,    +1.02441,   -0.00156,    -0.00639,    -0.01171,  -26.43398,   -11.22539,    +6.28594
  3146071441,   -0.01709,    -0.01416,    +1.03955,   -0.00368,    -0.00426,    -0.01064,  -26.43398,   -11.22539,    +6.28594
  3146074051,   -0.03076,    -0.01221,    +1.04150,   -0.00368,    -0.00958,    -0.01064,  -26.43398,   -11.22539,    +6.28594
  3146076558,   -0.02588,    -0.01270,    +1.01709,   -0.00688,    -0.00958,    -0.01383,  -26.43398,   -11.22539,    +6.28594
  3146079362,   -0.01416,    -0.01562,    +1.02734,   +0.00057,    -0.00639,    -0.01383,  -26.43398,   -11.22539,    +6.28594
  3146081699,   -0.01904,    -0.01416,    +1.03174,   -0.00262,    -0.00426,    -0.01703,  -26.43398,   -11.22539,    +6.28594
  3146084274,   -0.01807,    -0.01514,    +1.02637,   -0.00368,    -0.00426,    -0.00958,  -26.43398,   -11.22539,    +6.28594
  3146086918,   -0.01904,    -0.00879,    +1.02002,   -0.00475,    -0.00958,    -0.01171,  -26.43398,   -11.22539,    +6.28594
  3146089548,   -0.02295,    -0.00488,    +1.02393,   -0.00049,    -0.00745,    -0.00958,  -26.43398,   -11.22539,    +6.28594
  3146092083,   -0.02344,    -0.00537,    +1.02441,   -0.00368,    -0.01277,    -0.01383,  -26.43398,   -11.22539,    +6.28594
  3146094590,   -0.02100,    -0.00439,    +1.02686,   -0.00688,    -0.01277,    -0.00426,  -26.43398,   -11.22539,    +6.28594
  3146097165,   -0.00879,    -0.01514,    +1.01416,   -0.00262,    -0.00213,    -0.00958,  -26.43398,   -11.22539,    +6.28594
  3146099813,   -0.02393,    -0.01221,    +1.03613,   -0.00581,    -0.01064,    -0.01171,  -26.43398,   -11.22539,    +6.28594
  3146102298,   -0.00977,    -0.00684,    +1.03223,   +0.00057,    -0.00213,    -0.01064,  -26.43398,   -11.22539,    +6.28594
  3146104874,   -0.01855,    -0.00781,    +1.02490,   -0.00475,    -0.00851,    -0.01383,  -26.43398,   -11.22539,    +6.28594
  3146107535,   -0.01904,    -0.00684,    +1.02637,   -0.00156,    -0.01171,    -0.00958,  -26.43398,   -11.22539,    +6.28594
  3146110240,   -0.01855,    -0.00977,    +1.01904,   +0.00057,    -0.00745,    -0.01171,  -26.43398,   -11.22539,    +6.28594
  3146112603,   -0.01660,    -0.00977,    +1.01807,   -0.00475,    -0.00958,    -0.01064,  -26.43398,   -11.22539,    +6.28594
  3146115184,   -0.01611,    -0.00342,    +1.02051,   -0.00368,    -0.00851,    -0.01171,  -26.43398,   -11.22539,    +6.28594
  3146117764,   -0.01465,    -0.01416,    +1.01074,   -0.00475,    -0.00745,    -0.01064,  -26.43398,   -11.22539,    +6.28594
  3146120419,   -0.01709,    -0.01123,    +1.03125,   -0.00368,    -0.00958,    -0.01277,  -26.43398,   -11.22539,    +6.28594
  3146122906,   -0.02002,    -0.01562,    +1.02393,   -0.00368,    -0.01064,    -0.01171,  -26.43398,   -11.22539,    +6.28594
  3146125482,   -0.02197,    -0.00732,    +1.02734,   -0.00368,    -0.01171,    -0.00851,  -26.43398,   -11.22539,    +6.28594
  3146128133,   -0.02246,    -0.01416,    +1.02051,   -0.00475,    -0.00426,    -0.01383,  -26.43398,   -11.22539,    +6.28594
  3146130696,   -0.02051,    -0.00391,    +1.01953,   -0.00475,    -0.01064,    -0.00958,  -26.43398,   -11.22539,    +6.28594
  3146133190,   -0.01855,    -0.01074,    +1.02832,   -0.00049,    -0.01277,    -0.01064,  -26.43398,   -11.22539,    +6.28594
  3146135778,   -0.02148,    -0.02246,    +1.02197,   -0.00368,    -0.00958,    -0.01064,  -26.43398,   -11.22539,    +6.28594
  3146138354,   -0.02441,    -0.01465,    +1.01074,   +0.00057,    -0.00958,    -0.01277,  -26.43398,   -11.22539,    +6.28594
  3146141000,   -0.01904,    -0.01758,    +1.03027,   -0.00368,    -0.00639,    -0.00851,  -26.43398,   -11.22539,    +6.28594
  3146143499,   -0.02002,    -0.01660,    +1.04248,   -0.00049,    -0.00851,    -0.00851,  -26.43398,   -11.22539,    +6.28594
  3146146076,   -0.01123,    -0.01318,    +1.03760,   -0.00368,    -0.00745,    -0.01383,  -26.43398,   -11.22539,    +6.28594
  3146148711,   -0.01660,    -0.01172,    +1.02100,   -0.00475,    -0.00639,    -0.01064,  -26.43398,   -11.22539,    +6.28594
  3146151307,   -0.02246,    -0.00732,    +1.03369,   -0.00368,    -0.00319,    -0.01277,  -26.43398,   -11.22539,    +6.28594
  3146153841,   -0.02734,    -0.01514,    +1.03223,   -0.00262,    -0.00319,    -0.00851,  -26.43398,   -11.22539,    +6.28594
  3146156412,   -0.01318,    -0.01562,    +1.01562,   -0.00049,    -0.01064,    -0.01171,  -26.43398,   -11.22539,    +6.28594
  3146159103,   -0.02197,    -0.01562,    +1.02686,   -0.00049,    -0.00745,    -0.01171,  -26.43398,   -11.22539,    +6.28594
  3146161597,   -0.02051,    -0.01074,    +1.03613,   -0.00156,    -0.00426,    -0.00851,  -26.43398,   -11.22539,    +6.28594
  3146164182,   -0.02051,    -0.01318,    +1.02197,   -0.00156,    -0.01277,    -0.00851,  -26.43398,   -11.22539,    +6.28594
  3146166770,   -0.01807,    -0.01172,    +1.03857,   -0.00262,    -0.00745,    -0.00851,  -26.43398,   -11.22539,    +6.28594
  3146169309,   -0.00879,    -0.02002,    +1.02002,   -0.00262,    -0.00958,    -0.01171,  -26.43398,   -11.22539,    +6.28594
  3146171890,   -0.02539,    -0.01562,    +1.02539,   -0.00688,    -0.01064,    -0.01383,  -26.43398,   -11.22539,    +6.28594
  3146174513,   -0.02246,    -0.02051,    +1.02393,   -0.00156,    -0.00745,    -0.01383,  -26.43398,   -11.22539,    +6.28594
  3146177099,   -0.01318,    -0.01562,    +1.02930,   -0.00688,    -0.01064,    -0.01277,  -26.43398,   -11.22539,    +6.28594
  3146179594,   -0.01660,    -0.02002,    +1.02441,   -0.00049,    -0.00851,    -0.00851,  -26.43398,   -11.22539,    +6.28594
  3146182244,   -0.01904,    -0.01123,    +1.04004,   -0.00368,    -0.00213,    -0.01171,  -26.43398,   -11.22539,    +6.28594
  3146184754,   -0.02588,    -0.01025,    +1.03076,   -0.00368,    -0.01064,    -0.00851,  -26.43398,   -11.22539,    +6.28594
  3146187338,   -0.01562,    -0.01172,    +1.02588,   -0.00688,    -0.00851,    -0.01277,  -26.43398,   -11.22539,    +6.28594
  3146189976,   -0.01758,    -0.01074,    +1.02637,   -0.00368,    -0.00851,    -0.00958,  -26.43398,   -11.22539,    +6.28594
  3146192562,   -0.01855,    -0.01758,    +1.04199,   -0.00475,    -0.00639,    -0.01383,  -26.43398,   -11.22539,    +6.28594
  3146195070,   -0.01855,    -0.01221,    +1.04346,   -0.00156,    -0.00958,    -0.00958,  -26.43398,   -11.22539,    +6.28594
  3146197645,   -0.02539,    -0.01221,    +1.02002,   -0.00262,    -0.01064,    -0.00851,  -26.43398,   -11.22539,    +6.28594
  3146200293,   -0.02832,    -0.01221,    +1.02881,   -0.00262,    -0.01064,    -0.01171,  -26.43398,   -11.22539,    +6.28594
  3146202793,   -0.03174,    -0.02002,    +1.03027,   -0.00368,    -0.00851,    -0.00851,  -26.43398,   -11.22539,    +6.28594
  3146205403,   -0.01318,    -0.01660,    +1.03857,   -0.00581,    -0.00851,    -0.00958,  -26.43398,   -11.22539,    +6.28594
  3146208014,   -0.02490,    -0.01318,    +1.01855,   -0.00262,    -0.00851,    -0.00958,  -26.43398,   -11.22539,    +6.28594
  3146210583,   -0.01904,    -0.00586,    +1.01074,   -0.00262,    -0.00851,    -0.00851,  -26.43398,   -11.22539,    +6.28594
  3146213069,   -0.01465,    -0.01025,    +1.03857,   -0.00475,    -0.00532,    -0.01064,  -26.43398,   -11.22539,    +6.28594
  3146215656,   -0.02051,    -0.01660,    +1.01367,   -0.00156,    -0.00745,    -0.00958,  -26.43398,   -11.22539,    +6.28594
  3146218238,   -0.01758,    -0.01221,    +1.03174,   -0.00156,    -0.00851,    -0.01383,  -26.43398,   -11.22539,    +6.28594
  3146220876,   -0.01465,    -0.01123,    +1.03711,   -0.00475,    -0.00851,    -0.01383,  -26.43398,   -11.22539,    +6.28594
  3146223379,   -0.01465,    -0.01025,    +1.02930,   -0.00262,    -0.00851,    -0.00745,  -26.43398,   -11.22539,    +6.28594
  3146225954,   -0.02441,    -0.00684,    +1.02881,   -0.00262,    -0.00745,    -0.01277,  -26.43398,   -11.22539,    +6.28594
  3146228647,   -0.01660,    -0.01172,    +1.02441,   -0.00156,    -0.00958,    -0.01171,  -26.43398,   -11.22539,    +6.28594
  3146231156,   -0.01807,    -0.00635,    +1.03027,   -0.00049,    -0.00958,    -0.01171,  -26.43398,   -11.22539,    +6.28594
  3146233658,   -0.01855,    -0.01270,    +1.03076,   +0.00057,    -0.00745,    -0.01383,  -26.43398,   -11.22539,    +6.28594
  3146236242,   -0.02246,    -0.00928,    +1.02490,   -0.00262,    -0.01171,    -0.00745,  -26.43398,   -11.22539,    +6.28594
  3146238837,   -0.01660,    -0.00537,    +1.03320,   -0.00581,    -0.00639,    -0.01277,  -26.43398,   -11.22539,    +6.28594
  3146241396,   -0.01904,    -0.01318,    +1.02783,   -0.00049,    -0.00958,    -0.01064,  -26.43398,   -11.22539,    +6.28594
  3146243970,   -0.00830,    -0.01172,    +1.02881,   -0.00262,    -0.00532,    -0.01383,  -26.43398,   -11.22539,    +6.28594
  3146246587,   -0.01611,    -0.00977,    +1.01367,   -0.00368,    -0.01171,    -0.01596,  -26.43398,   -11.22539,    +6.28594
  3146249308,   -0.02588,    -0.01172,    +1.03369,   +0.00057,    -0.00532,    -0.01277,  -26.43398,   -11.22539,    +6.28594
  3146251680,   -0.02832,    -0.01562,    +1.02686,   -0.00368,    -0.00958,    -0.01171,  -26.43398,   -11.22539,    +6.28594
  3146254264,   -0.02002,    -0.00586,    +1.02539,   -0.00475,    -0.00745,    -0.01171,  -26.43398,   -11.22539,    +6.28594
  3146256843,   -0.02295,    -0.01562,    +1.02393,   -0.00049,    -0.00639,    -0.01383,  -26.43398,   -11.22539,    +6.28594
  3146259485,   -0.01562,    -0.01172,    +1.02832,   +0.00057,    -0.01277,    -0.01171,  -26.43398,   -11.22539,    +6.28594
  3146261975,   -0.01807,    -0.01465,    +1.03027,   -0.00581,    -0.00958,    -0.01171,  -26.43398,   -11.22539,    +6.28594
  3146264551,   -0.02051,    -0.01025,    +1.01904,   -0.00156,    -0.00639,    -0.01383,  -26.43398,   -11.22539,    +6.28594
  3146267211,   -0.01221,    -0.01318,    +1.01318,   +0.00164,    -0.01171,    -0.00639,  -26.43398,   -11.22539,    +6.28594
  3146269771,   -0.02100,    -0.01758,    +1.02197,   -0.00262,    -0.00532,    -0.01171,  -26.43398,   -11.22539,    +6.28594
  3146272274,   -0.01318,    -0.00098,    +1.02197,   -0.00794,    -0.00639,    -0.01064,  -26.43398,   -11.22539,    +6.28594
  3146274861,   -0.02734,    -0.01221,    +1.02197,   -0.00475,    -0.01064,    -0.00958,  -26.43398,   -11.22539,    +6.28594
  3146277439,   -0.02100,    -0.00977,    +1.02637,   -0.00156,    -0.01064,    -0.00745,  -26.43398,   -11.22539,    +6.28594
  3146280092,   -0.01562,    -0.01660,    +1.02246,   +0.00270,    -0.00745,    -0.01064,  -26.43398,   -11.22539,    +6.28594
  3146282566,   -0.02100,    -0.01709,    +1.02246,   -0.00262,    -0.00851,    -0.01383,  -26.43398,   -11.22539,    +6.28594
  3146285145,   -0.02588,    -0.00977,    +1.02051,   -0.00262,    -0.00639,    -0.00958,  -26.43398,   -11.22539,    +6.28594
  3146287790,   -0.01807,    -0.01270,    +1.03174,   -0.00368,    -0.00745,    -0.01383,  -26.43398,   -11.22539,    +6.28594
  3146290390,   -0.01758,    -0.00879,    +1.02441,   -0.00156,    -0.01171,    -0.00958,  -26.43398,   -11.22539,    +6.28594
  3146292881,   -0.01318,    -0.00781,    +1.03271,   -0.00262,    -0.00958,    -0.01383,  -26.43398,   -11.22539,    +6.28594
  3146295463,   -0.02051,    -0.00879,    +1.01514,   -0.00475,    -0.00532,    -0.00958,  -26.43398,   -11.22539,    +6.28594
  3146298045,   -0.02100,    -0.01660,    +1.03662,   -0.00475,    -0.01171,    -0.01171,  -26.43398,   -11.22539,    +6.28594
  3146300688,   -0.01807,    -0.01025,    +1.02930,   -0.00475,    -0.00958,    -0.01171,  -26.43398,   -11.22539,    +6.28594
  3146303178,   -0.02490,    -0.01416,    +1.03516,   -0.00475,    -0.01064,    -0.00851,  -26.43398,   -11.22539,    +6.28594
  3146305756,   -0.02539,    -0.02197,    +1.01953,   -0.00156,    -0.01171,    -0.01490,  -26.43398,   -11.22539,    +6.28594
  3146308410,   -0.01709,    -0.01318,    +1.03564,   -0.00581,    -0.00532,    -0.01277,  -24.26133,    -9.41484,    +5.23828
  3146311109,   -0.02197,    -0.01807,    +1.02148,   -0.00581,    -0.01171,    -0.00958,  -24.26133,    -9.41484,    +5.23828
  3146313464,   -0.01562,    -0.01514,    +1.02979,   -0.00475,    -0.00745,    -0.01064,  -24.26133,    -9.41484,    +5.23828
  3146316090,   -0.01855,    -0.00732,    +1.02930,   -0.00475,    -0.00958,    -0.01277,  -24.26133,    -9.41484,    +5.23828
  3146318681,   -0.01562,    -0.00879,    +1.02197,   -0.00049,    -0.00958,    -0.00958,  -24.26133,    -9.41484,    +5.23828
  3146321174,   -0.01709,    -0.00732,    +1.02246,   +0.00057,    -0.01171,    -0.01383,  -24.26133,    -9.41484,    +5.23828
  3146323760,   -0.01660,    -0.02197,    +1.02832,   -0.00262,    -0.00851,    -0.01064,  -24.26133,    -9.41484,    +5.23828
  3146326334,   -0.01758,    -0.00977,    +1.02734,   -0.00156,    -0.00426,    -0.01171,  -24.26133,    -9.41484,    +5.23828
  3146328909,   -0.01660,    -0.01025,    +1.03809,   -0.00581,    -0.01277,    -0.01171,  -24.26133,    -9.41484,    +5.23828
  3146331551,   -0.01514,    -0.01221,    +1.03223,   -0.00049,    -0.00319,    -0.00851,  -24.26133,    -9.41484,    +5.23828
  3146334140,   -0.01367,    -0.00879,    +1.02637,   -0.00368,    -0.01171,    -0.00958,  -24.26133,    -9.41484,    +5.23828
  3146336646,   -0.01660,    -0.01416,    +1.01660,   -0.00262,    -0.01064,    -0.00745,  -24.26133,    -9.41484,    +5.23828
  3146339242,   -0.02344,    -0.00488,    +1.03027,   -0.00156,    -0.00426,    -0.01064,  -24.26133,    -9.41484,    +5.23828
  3146341793,   -0.01904,    -0.01074,    +1.02148,   -0.00688,    -0.01064,    -0.01277,  -24.26133,    -9.41484,    +5.23828
  3146344377,   -0.01172,    -0.02344,    +1.03906,   +0.00164,    -0.01064,    -0.01490,  -24.26133,    -9.41484,    +5.23828
  3146346964,   -0.02246,    -0.02051,    +1.02002,   -0.00156,    -0.00319,    -0.01171,  -24.26133,    -9.41484,    +5.23828
  3146349616,   -0.01562,    -0.00977,    +1.02295,   -0.00262,    -0.01277,    -0.01171,  -24.26133,    -9.41484,    +5.23828
  3146352192,   -0.02051,    -0.01123,    +1.03076,   -0.00368,    -0.00745,    -0.01171,  -24.26133,    -9.41484,    +5.23828
  3146354696,   -0.02002,    -0.01416,    +1.02002,   -0.00156,    -0.00745,    -0.01064,  -24.26133,    -9.41484,    +5.23828
  3146357274,   -0.01758,    -0.01709,    +1.02686,   -0.00156,    -0.00745,    -0.01064,  -24.26133,    -9.41484,    +5.23828
  3146359930,   -0.02295,    -0.01172,    +1.02148,   -0.00368,    -0.01171,    -0.01171,  -24.26133,    -9.41484,    +5.23828
  3146362555,   -0.01660,    -0.01074,    +1.03955,   -0.00049,    -0.00745,    -0.01277,  -24.26133,    -9.41484,    +5.23828
  3146365078,   -0.01318,    -0.00977,    +1.03125,   -0.00049,    -0.00426,    -0.01383,  -24.26133,    -9.41484,    +5.23828
  3146367564,   -0.01807,    -0.01465,    +1.02197,   -0.00156,    -0.00958,    -0.01171,  -24.26133,    -9.41484,    +5.23828
  3146370148,   -0.02344,    -0.02051,    +1.04297,   -0.00475,    -0.01383,    -0.01171,  -24.26133,    -9.41484,    +5.23828
  3146372724,   -0.01855,    -0.00781,    +1.02637,   -0.00262,    -0.00745,    -0.01277,  -24.26133,    -9.41484,    +5.23828
  3146375356,   -0.01367,    -0.01025,    +1.02393,   -0.00262,    -0.01171,    -0.01490,  -24.26133,    -9.41484,    +5.23828
  3146377973,   -0.00977,    -0.01709,    +1.03174,   -0.00049,    -0.01171,    -0.01171,  -24.26133,    -9.41484,    +5.23828
  3146380514,   -0.02686,    -0.02148,    +1.04248,   -0.00156,    -0.00958,    -0.01064,  -24.26133,    -9.41484,    +5.23828
  3146383097,   -0.01611,    -0.00391,    +1.03125,   -0.00262,    -0.00958,    -0.00958,  -24.26133,    -9.41484,    +5.23828
  3146385604,   -0.02246,    -0.01416,    +1.02148,   -0.00368,    -0.00958,    -0.01596,  -24.26133,    -9.41484,    +5.23828
  3146388185,   -0.02344,    -0.01074,    +1.02490,   -0.00368,    -0.00745,    -0.01490,  -24.26133,    -9.41484,    +5.23828
  3146390830,   -0.01318,    -0.01074,    +1.01758,   -0.00262,    -0.00745,    -0.01171,  -24.26133,    -9.41484,    +5.23828
  3146393415,   -0.01611,    -0.01904,    +1.01611,   -0.00368,    -0.00745,    -0.01277,  -24.26133,    -9.41484,    +5.23828
  3146395919,   -0.02051,    -0.01221,    +1.02539,   +0.00057,    -0.01171,    -0.00958,  -24.26133,    -9.41484,    +5.23828
  3146398669,   -0.01416,    -0.01221,    +1.04297,   -0.01007,    -0.00745,    -0.01171,  -24.26133,    -9.41484,    +5.23828
  3146401144,   -0.02539,    -0.01221,    +1.02002,   -0.00581,    -0.00958,    -0.00958,  -24.26133,    -9.41484,    +5.23828
  3146403646,   -0.01221,    -0.00928,    +1.02539,   -0.00794,    -0.00532,    -0.01064,  -24.26133,    -9.41484,    +5.23828
  3146406227,   -0.02588,    -0.01123,    +1.03760,   -0.00794,    -0.00745,    -0.01171,  -24.26133,    -9.41484,    +5.23828
  3146408876,   -0.02002,    -0.00586,    +1.01416,   -0.00475,    -0.00958,    -0.00958,  -24.26133,    -9.41484,    +5.23828
  3146411424,   -0.02344,    -0.01123,    +1.02051,   -0.00368,    -0.00745,    -0.01171,  -24.26133,    -9.41484,    +5.23828
  3146413924,   -0.02246,    -0.01221,    +1.02393,   -0.00049,    -0.00532,    -0.01277,  -24.26133,    -9.41484,    +5.23828
  3146416510,   -0.01367,    -0.01221,    +1.00830,   -0.00262,    -0.01064,    -0.00958,  -24.26133,    -9.41484,    +5.23828
  3146419140,   -0.02197,    -0.00781,    +1.01904,   -0.00368,    -0.00639,    -0.01383,  -24.26133,    -9.41484,    +5.23828
  3146421652,   -0.01855,    -0.00293,    +1.01904,   -0.00581,    -0.01064,    -0.01277,  -24.26133,    -9.41484,    +5.23828
  3146424231,   -0.01758,    -0.01318,    +1.01855,   -0.00475,    -0.00639,    -0.01171,  -24.26133,    -9.41484,    +5.23828
  3146426870,   -0.01904,    -0.01025,    +1.02393,   -0.00368,    -0.01064,    -0.01064,  -24.26133,    -9.41484,    +5.23828
  3146429485,   -0.01758,    -0.00732,    +1.03711,   +0.00270,    -0.00426,    -0.00851,  -24.26133,    -9.41484,    +5.23828
  3146432027,   -0.01318,    -0.01221,    +1.03760,   -0.00368,    -0.00426,    -0.01064,  -24.26133,    -9.41484,    +5.23828
  3146434534,   -0.01855,    -0.01025,    +1.03369,   +0.00057,    -0.01383,    -0.00958,  -25.89082,    -9.95801,    +6.11133
  3146437106,   -0.02832,    -0.02295,    +1.02197,   -0.00794,    -0.00745,    -0.01064,  -25.89082,    -9.95801,    +6.11133
  3146439757,   -0.02295,    -0.00879,    +1.02734,   -0.00368,    -0.00958,    -0.01171,  -25.89082,    -9.95801,    +6.11133
  3146442261,   -0.02588,    -0.01025,    +1.01758,   -0.00262,    -0.01277,    -0.01064,  -25.89082,    -9.95801,    +6.11133
  3146444836,   -0.02197,    -0.01172,    +1.03369,   -0.00049,    -0.00745,    -0.01064,  -25.89082,    -9.95801,    +6.11133
  3146447483,   -0.01855,    -0.01172,    +1.02148,   -0.00262,    -0.00319,    -0.00958,  -25.89082,    -9.95801,    +6.11133
  3146450073,   -0.02979,    -0.02002,    +1.02881,   -0.00368,    -0.00639,    -0.00851,  -25.89082,    -9.95801,    +6.11133
  3146452578,   -0.01611,    -0.00342,    +1.00879,   -0.00156,    -0.00639,    -0.01383,  -25.89082,    -9.95801,    +6.11133
  3146455152,   -0.01465,    -0.01074,    +1.03467,   -0.00581,    -0.00426,    -0.00958,  -25.89082,    -9.95801,    +6.11133
  3146457802,   -0.02197,    -0.00684,    +1.02100,   -0.00262,    -0.01064,    -0.01171,  -25.89082,    -9.95801,    +6.11133
  3146460401,   -0.00928,    -0.01562,    +1.03223,   -0.00475,    -0.00213,    -0.00958,  -25.89082,    -9.95801,    +6.11133
  3146462995,   -0.02002,    -0.00342,    +1.03027,   -0.00262,    -0.01277,    -0.00958,  -25.89082,    -9.95801,    +6.11133
  3146465572,   -0.01611,    -0.02344,    +1.03320,   -0.00368,    -0.00639,    -0.00851,  -25.89082,    -9.95801,    +6.11133
  3146468062,   -0.01318,    -0.01611,    +1.02832,   -0.00049,    -0.00958,    -0.01277,  -25.89082,    -9.95801,    +6.11133
  3146470690,   -0.02148,    -0.01611,    +1.02441,   -0.00368,    -0.00532,    -0.01171,  -25.89082,    -9.95801,    +6.11133
  3146473275,   -0.02344,    -0.00781,    +1.01562,   -0.00688,    -0.00745,    -0.00851,  -25.89082,    -9.95801,    +6.11133
  3146475914,   -0.01562,    -0.00732,    +1.03125,   -0.00156,    -0.01171,    -0.01277,  -25.89082,    -9.95801,    +6.11133
  3146478621,   -0.01855,    -0.01123,    +1.02881,   -0.00049,    -0.00532,    -0.01171,  -25.89082,    -9.95801,    +6.11133
  3146481102,   -0.02246,    -0.01514,    +1.02197,   -0.00156,    -0.00958,    -0.01277,  -25.89082,    -9.95801,    +6.11133
  3146483646,   -0.01660,    -0.00781,    +1.02100,   -0.00368,    -0.00532,    -0.01064,  -25.89082,    -9.95801,    +6.11133
  3146486153,   -0.01904,    -0.00781,    +1.03516,   -0.00262,    -0.00958,    -0.00851,  -25.89082,    -9.95801,    +6.11133
  3146488792,   -0.01123,    -0.00732,    +1.02832,   -0.00156,    -0.01171,    -0.01383,  -25.89082,    -9.95801,    +6.11133
  3146491372,   -0.02295,    -0.01172,    +1.02637,   -0.00262,    -0.01064,    -0.01064,  -25.89082,    -9.95801,    +6.11133
  3146493960,   -0.01758,    -0.01758,    +1.02148,   +0.00164,    -0.01171,    -0.01277,  -25.89082,    -9.95801,    +6.11133
  3146496466,   -0.01855,    -0.01416,    +1.02686,   +0.00057,    -0.00745,    -0.01064,  -25.89082,    -9.95801,    +6.11133
  3146499136,   -0.02393,    -0.01611,    +1.04590,   -0.00581,    -0.00639,    -0.01383,  -25.89082,    -9.95801,    +6.11133
  3146501607,   -0.01465,    -0.01123,    +1.02686,   -0.00262,    -0.00851,    -0.01277,  -25.89082,    -9.95801,    +6.11133
  3146504187,   -0.01855,    -0.00928,    +1.03516,   -0.00475,    -0.00745,    -0.01383,  -25.89082,    -9.95801,    +6.11133
  3146506819,   -0.01172,    -0.00879,    +1.01562,   -0.00262,    -0.01064,    -0.01064,  -25.89082,    -9.95801,    +6.11133
  3146509419,   -0.00879,    -0.01025,    +1.03125,   -0.00262,    -0.00106,    -0.01171,  -25.89082,    -9.95801,    +6.11133
  3146511998,   -0.01318,    -0.01123,    +1.02588,   -0.00262,    -0.00851,    -0.01383,  -25.89082,    -9.95801,    +6.11133
  3146514479,   -0.02344,    -0.01318,    +1.02588,   -0.00368,    -0.00851,    -0.01171,  -25.89082,    -9.95801,    +6.11133
  3146517289,   -0.02197,    -0.01025,    +1.01465,   -0.00368,    -0.01277,    -0.01383,  -25.89082,    -9.95801,    +6.11133
  3146519781,   -0.02051,    -0.01709,    +1.02734,   -0.00049,    -0.00851,    -0.00851,  -25.89082,    -9.95801,    +6.11133
  3146522366,   -0.02393,    -0.01465,    +1.03223,   +0.00057,    -0.01064,    -0.01064,  -25.89082,    -9.95801,    +6.11133
  3146524952,   -0.01855,    -0.02246,    +1.03613,   -0.00581,    -0.00639,    -0.01064,  -25.89082,    -9.95801,    +6.11133
  3146527461,   -0.02930,    -0.01611,    +1.01172,   -0.00156,    -0.01064,    -0.01383,  -25.89082,    -9.95801,    +6.11133
  3146530039,   -0.02002,    -0.01074,    +1.03271,   -0.00368,    -0.00958,    -0.00958,  -25.89082,    -9.95801,    +6.11133
  3146532668,   -0.03076,    -0.00781,    +1.03564,   -0.00475,    -0.01171,    -0.01383,  -25.89082,    -9.95801,    +6.11133
  3146535271,   -0.02246,    -0.00391,    +1.02979,   -0.00368,    -0.00639,    -0.01171,  -25.89082,    -9.95801,    +6.11133
  3146537779,   -0.02051,    -0.01562,    +1.02686,   -0.00262,    -0.00851,    -0.01490,  -25.89082,    -9.95801,    +6.11133
  3146540365,   -0.01514,    -0.00781,    +1.01807,   -0.00156,    -0.00639,    -0.01277,  -25.89082,    -9.95801,    +6.11133
  3146542903,   -0.02393,    -0.01221,    +1.00195,   -0.00262,    -0.00639,    -0.00851,  -25.89082,    -9.95801,    +6.11133
  3146545501,   -0.01514,    -0.00879,    +1.03076,   +0.00164,    -0.00745,    -0.01490,  -25.89082,    -9.95801,    +6.11133
  3146548071,   -0.03125,    -0.00049,    +1.02686,   -0.00368,    -0.01064,    -0.01064,  -25.89082,    -9.95801,    +6.11133
  3146550710,   -0.01660,    -0.01318,    +1.01904,   -0.00262,    -0.00851,    -0.01490,  -25.89082,    -9.95801,    +6.11133
  3146553294,   -0.02393,    -0.01172,    +1.02295,   -0.00901,    -0.00958,    -0.01383,  -25.89082,    -9.95801,    +6.11133
  3146555800,   -0.01221,    -0.01074,    +1.02441,   -0.00262,    -0.00958,    -0.01171,  -25.89082,    -9.95801,    +6.11133
  3146558376,   -0.02539,    -0.00781,    +1.03369,   +0.00057,    -0.01277,    -0.01064,  -24.62344,    -9.05273,    +6.28594
  3146560980,   -0.01660,    -0.00684,    +1.03467,   -0.00049,    -0.01064,    -0.01277,  -24.62344,    -9.05273,    +6.28594
  3146563547,   -0.01709,    -0.01270,    +1.02295,   -0.00262,    -0.01064,    -0.01383,  -24.62344,    -9.05273,    +6.28594
  3146566131,   -0.01904,    -0.01904,    +1.02051,   +0.00164,    -0.00532,    -0.01277,  -24.62344,    -9.05273,    +6.28594
  3146568718,   -0.01611,    -0.01025,    +1.01318,   -0.00049,    -0.01277,    -0.00851,  -24.62344,    -9.05273,    +6.28594
  3146571226,   -0.02344,    -0.01807,    +1.02100,   -0.00475,    -0.00532,    -0.01490,  -24.62344,    -9.05273,    +6.28594
  3146573800,   -0.01709,    -0.01318,    +1.02490,   -0.00688,    -0.00851,    -0.00745,  -24.62344,    -9.05273,    +6.28594
  3146576432,   -0.02441,    -0.00000,    +1.01953,   -0.00368,    -0.00851,    -0.00958,  -24.62344,    -9.05273,    +6.28594
  3146579151,   -0.01660,    -0.01465,    +1.04590,   +0.00057,    -0.00639,    -0.01383,  -24.62344,    -9.05273,    +6.28594
  3146581646,   -0.02441,    -0.01709,    +1.01465,   -0.00368,    -0.01171,    -0.01064,  -24.62344,    -9.05273,    +6.28594
  3146584191,   -0.02100,    -0.00488,    +1.02588,   -0.00581,    -0.01064,    -0.00958,  -24.62344,    -9.05273,    +6.28594
  3146586700,   -0.01562,    -0.01123,    +1.04297,   -0.00368,    -0.00639,    -0.00958,  -24.62344,    -9.05273,    +6.28594
  3146589278,   -0.02686,    -0.01074,    +1.03955,   -0.00688,    -0.01064,    -0.01064,  -24.62344,    -9.05273,    +6.28594
  3146591922,   -0.03125,    -0.01025,    +1.02686,   -0.00475,    -0.00639,    -0.01277,  -24.62344,    -9.05273,    +6.28594
  3146594508,   -0.01807,    -0.01416,    +1.03125,   -0.00581,    -0.01064,    -0.01064,  -24.62344,    -9.05273,    +6.28594
  3146597017,   -0.02686,    -0.01807,    +1.02490,   +0.00057,    -0.01064,    -0.01064,  -24.62344,    -9.05273,    +6.28594
  3146599594,   -0.02100,    -0.01172,    +1.03613,   -0.00262,    -0.00639,    -0.00745,  -24.62344,    -9.05273,    +6.28594
  3146602144,   -0.02148,    -0.00000,    +1.03613,   +0.00057,    -0.01064,    -0.01490,  -24.62344,    -9.05273,    +6.28594
  3146604729,   -0.01416,    -0.00488,    +1.04736,   -0.00049,    -0.01064,    -0.00958,  -24.62344,    -9.05273,    +6.28594
  3146607301,   -0.02148,    -0.01660,    +1.02197,   -0.00794,    -0.01064,    -0.01490,  -24.62344,    -9.05273,    +6.28594
  3146609971,   -0.01855,    -0.00488,    +1.03760,   -0.00368,    -0.00851,    -0.00745,  -24.62344,    -9.05273,    +6.28594
  3146612551,   -0.01416,    -0.00488,    +1.02002,   -0.00368,    -0.00958,    -0.01277,  -24.62344,    -9.05273,    +6.28594
  3146615022,   -0.01855,    -0.01709,    +1.02295,   -0.00049,    -0.00958,    -0.01171,  -24.62344,    -9.05273,    +6.28594
  3146617603,   -0.02197,    -0.02148,    +1.02881,   -0.00262,    -0.00639,    -0.01064,  -24.62344,    -9.05273,    +6.28594
  3146620242,   -0.01904,    -0.01025,    +1.04541,   -0.00049,    -0.01277,    -0.01277,  -24.62344,    -9.05273,    +6.28594
  3146622742,   -0.01855,    -0.00586,    +1.03857,   -0.00794,    -0.00851,    -0.01277,  -24.62344,    -9.05273,    +6.28594
  3146625339,   -0.02002,    -0.01025,    +1.02246,   -0.00049,    -0.00851,    -0.00958,  -24.62344,    -9.05273,    +6.28594
  3146627978,   -0.01221,    -0.01025,    +1.02051,   -0.00368,    -0.00639,    -0.01277,  -24.62344,    -9.05273,    +6.28594
  3146630531,   -0.01416,    -0.01123,    +1.01807,   -0.00156,    -0.00851,    -0.01171,  -24.62344,    -9.05273,    +6.28594
  3146633022,   -0.02881,    -0.00000,    +1.01270,   -0.00156,    -0.00745,    -0.00851,  -24.62344,    -9.05273,    +6.28594
  3146635603,   -0.02051,    -0.00098,    +1.02197,   -0.00262,    -0.00851,    -0.01064,  -24.62344,    -9.05273,    +6.28594
  3146638176,   -0.02490,    -0.00879,    +1.01953,   +0.00057,    -0.01064,    -0.00958,  -24.62344,    -9.05273,    +6.28594
  3146640824,   -0.02393,    -0.00537,    +1.02783,   -0.00156,    -0.00426,    -0.01171,  -24.62344,    -9.05273,    +6.28594
  3146643327,   -0.02002,    -0.01123,    +1.02441,   -0.00262,    -0.00532,    -0.00958,  -24.62344,    -9.05273,    +6.28594
  3146645906,   -0.02490,    -0.00977,    +1.02881,   -0.00475,    -0.01277,    -0.01171,  -24.62344,    -9.05273,    +6.28594
